Index,audio,trials.thisRepN,trials.thisTrialN,trials.thisN,trials.thisIndex,thisRow.t,notes,Instruction.started,Instructions.started,resp_start.started,Instruction.stopped,resp_start.keys,trial.started,cross.started,audio.started,trial.stopped,Responses.started,respp.started,key_resp.started,Responses.stopped,key_resp.keys,key_resp.rt,key_resp.duration,response1,response2,response3,participant,session,date,expName,psychopyVersion,frameRate,expStart,
,,,,,,,,0.012020300142467022,0.045004299841821194,0.045004299841821194,1.7481992999091744,None,,,,,,,,,,,,,,,716,001,2024-10-01_15h10.07.162,Trial_mult,2023.2.1,59.82632409840569,2024-10-01 15h10.32.916240 -0400,
1,block1_trial1_attendright_leadmasker.wav,0,0,0,0,1.7801470002159476,,,,,,,1.78039319999516,1.7965571000240743,2.000161800067872,7.60153069999069,7.601542400196195,7.618255199864507,7.618255199864507,9.470756500028074,"['2', '3', '2']","[0.9714668998494744, 1.355005200020969]","[0.16073539992794394, 0.17744759982451797]",2,3,2,716,001,2024-10-01_15h10.07.162,Trial_mult,2023.2.1,59.82632409840569,2024-10-01 15h10.32.916240 -0400,
2,block1_trial2_attendright_leadmasker.wav,0,1,1,1,9.486051300074905,,,,,,,9.486119099892676,9.502242600079626,2.014971799682826,15.358262300025672,15.358274099882692,15.374468700028956,15.374468700028956,16.62639359990135,"['2', '3', '3']","[0.4709016000851989, 0.8321195002645254]","[0.12866159994155169, 0.12825029995292425]",2,3,3,716,001,2024-10-01_15h10.07.162,Trial_mult,2023.2.1,59.82632409840569,2024-10-01 15h10.32.916240 -0400,
3,block1_trial3_attendright_leadtarget.wav,0,2,2,2,16.641266399994493,,,,,,,16.64131740015,16.65797509998083,2.0161812999285758,22.51364320004359,22.513654599897563,22.530354199931026,22.530354199931026,24.098653399851173,"['1', '2', '2']","[0.6828986997716129, 1.0189702999778092]","[0.10448169987648726, 0.12088799988850951]",1,2,2,716,001,2024-10-01_15h10.07.162,Trial_mult,2023.2.1,59.82632409840569,2024-10-01 15h10.32.916240 -0400,
4,block1_trial4_attendright_leadmasker.wav,0,3,3,3,24.113892199937254,,,,,,,24.113950100261718,24.131259300280362,2.017348799854517,29.986235599964857,29.986246400047094,30.002883499953896,30.002883499953896,31.1378593002446,"['1', '1', '3']","[0.36338380025699735, 0.7563920002430677]","[0.12770899990573525, 0.13501229975372553]",1,1,3,716,001,2024-10-01_15h10.07.162,Trial_mult,2023.2.1,59.82632409840569,2024-10-01 15h10.32.916240 -0400,
5,block1_trial5_attendright_leadmasker.wav,0,4,4,4,31.152898599859327,,,,,,,31.152951000258327,31.17029200028628,2.0165554000996053,36.991315899882466,36.99133040010929,37.008249500300735,37.008249500300735,38.24395939987153,"['3', '1', '1']","[0.39774819975718856, 0.8376311999745667]","[0.1356164002791047, 0.12110390001907945]",3,1,1,716,001,2024-10-01_15h10.07.162,Trial_mult,2023.2.1,59.82632409840569,2024-10-01 15h10.32.916240 -0400,
6,block1_trial6_attendleft_leadtarget.wav,0,5,5,5,38.258586400188506,,,,,,,38.25864310003817,38.27588880015537,2.016558999661356,44.096911299973726,44.096922600176185,44.113515300210565,44.113515300210565,45.48267630022019,"['3', '3', '3']","[0.5004297001287341, 0.9085695003159344]","[0.09528330015018582, 0.13594419974833727]",3,3,3,716,001,2024-10-01_15h10.07.162,Trial_mult,2023.2.1,59.82632409840569,2024-10-01 15h10.32.916240 -0400,
7,block1_trial7_attendleft_leadtarget.wav,0,6,6,6,45.49777520028874,,,,,,,45.4978327001445,45.51475419988856,2.0166891999542713,51.336662699934095,51.33667360013351,51.35253470018506,51.35253470018506,52.78850580006838,"['1', '2', '2']","[0.6047025001607835, 0.9577533002011478]","[0.11297390004619956, 0.17512729996815324]",1,2,2,716,001,2024-10-01_15h10.07.162,Trial_mult,2023.2.1,59.82632409840569,2024-10-01 15h10.32.916240 -0400,
8,block1_trial8_attendleft_leadmasker.wav,0,7,7,7,52.80358299985528,,,,,,,52.803641700185835,52.82051650015637,2.0166464997455478,58.675519899930805,58.67553099989891,58.69178709993139,58.69178709993139,59.72770659998059,"['2', '3', '3']","[0.33876929990947247, 0.6814044001512229]","[0.15935410000383854, 0.15277269994840026]",2,3,3,716,001,2024-10-01_15h10.07.162,Trial_mult,2023.2.1,59.82632409840569,2024-10-01 15h10.32.916240 -0400,
9,block1_trial9_attendleft_leadmasker.wav,0,8,8,8,59.742548800073564,,,,,,,59.74260909995064,59.75973530020565,2.0161697999574244,65.5977544002235,65.59776569996029,65.61455509997904,65.61455509997904,67.80059979995713,"['2', '1', '2']","[1.3033646000549197, 1.7673247000202537]","[0.12846879987046123, 0.04798400029540062]",2,1,2,716,001,2024-10-01_15h10.07.162,Trial_mult,2023.2.1,59.82632409840569,2024-10-01 15h10.32.916240 -0400,
10,block1_trial10_attendright_leadtarget.wav,0,9,9,9,67.81565150013193,,,,,,,67.81570259993896,67.83249810012057,2.016425599809736,73.68797599989921,73.68798839999363,73.7043535001576,73.7043535001576,75.30716910026968,"['1', '2', '2']","[0.7256767000071704, 1.150721900165081]","[0.11959489993751049, 0.0873507997021079]",1,2,2,716,001,2024-10-01_15h10.07.162,Trial_mult,2023.2.1,59.82632409840569,2024-10-01 15h10.32.916240 -0400,
11,block1_trial11_attendright_leadmasker.wav,0,10,10,10,75.32159199984744,,,,,,,75.32164510013536,75.3385288999416,2.0161349000409245,81.16083370009437,81.16084480006248,81.17744049988687,81.17744049988687,82.42860030010343,"['3', '2', '2']","[0.38911240035668015, 0.8286361000500619]","[0.16029120003804564, 0.15255190012976527]",3,2,2,716,001,2024-10-01_15h10.07.162,Trial_mult,2023.2.1,59.82632409840569,2024-10-01 15h10.32.916240 -0400,
12,block1_trial12_attendleft_leadtarget.wav,0,11,11,11,82.44467810029164,,,,,,,82.44475310016423,82.46096810000017,2.0168444998562336,88.34950749995187,88.3495191000402,88.36560470005497,88.36560470005497,89.38455810025334,"['1', '3', '2']","[0.3124106000177562, 0.6797253000549972]","[0.1598408999852836, 0.16901860013604164]",1,3,2,716,001,2024-10-01_15h10.07.162,Trial_mult,2023.2.1,59.82632409840569,2024-10-01 15h10.32.916240 -0400,
13,block1_trial13_attendright_leadmasker.wav,0,12,12,12,89.39980670018122,,,,,,,89.3998632999137,89.4168998003006,2.0165202002972364,95.27213469985873,95.27214680006728,95.28792539983988,95.28792539983988,96.39043370028958,"['3', '3', '3']","[0.3651693998835981, 0.7583647998981178]","[0.16097960015758872, 0.15103270020335913]",3,3,3,716,001,2024-10-01_15h10.07.162,Trial_mult,2023.2.1,59.82632409840569,2024-10-01 15h10.32.916240 -0400,
14,block1_trial14_attendright_leadtarget.wav,0,13,13,13,96.40521460026503,,,,,,,96.40526789985597,96.4222805001773,2.0166962002404034,102.24401380028576,102.24402470001951,102.26111759990454,102.26111759990454,103.94649170013145,"['2', '3', '3']","[0.4802405000664294, 0.9442083002068102]","[0.13579110009595752, 0.14509599981829524]",2,3,3,716,001,2024-10-01_15h10.07.162,Trial_mult,2023.2.1,59.82632409840569,2024-10-01 15h10.32.916240 -0400,
15,block1_trial15_attendleft_leadmasker.wav,0,14,14,14,103.96136410022154,,,,,,,103.9614201001823,103.97833810001612,2.0165329999290407,109.81667939992622,109.81669049989432,109.83363969996572,109.83363969996572,111.03581120027229,"['3', '2', '3']","[0.32557979971170425, 0.7162720998749137]","[0.16725050006061792, 0.1194255999289453]",3,2,3,716,001,2024-10-01_15h10.07.162,Trial_mult,2023.2.1,59.82632409840569,2024-10-01 15h10.32.916240 -0400,
16,block1_trial16_attendleft_leadmasker.wav,0,15,15,15,111.05033340025693,,,,,,,111.05038559995592,111.06780289998278,2.0159130999818444,116.92193940002471,116.92195060011,116.93844299996272,116.93844299996272,118.2574336999096,"['3', '1', '1']","[0.4355965000577271, 0.9145053997635841]","[0.1595320999622345, 0.11361420014873147]",3,1,1,716,001,2024-10-01_15h10.07.162,Trial_mult,2023.2.1,59.82632409840569,2024-10-01 15h10.32.916240 -0400,
17,block1_trial17_attendleft_leadtarget.wav,0,16,16,16,118.27280869986862,,,,,,,118.27287240000442,118.28947280021384,2.016562500037253,124.11111530009657,124.11112620029598,124.12759480020031,124.12759480020031,125.17997119994834,"['3', '2', '3']","[0.2777839000336826, 0.6539485999383032]","[0.1597672998905182, 0.15969650028273463]",3,2,3,716,001,2024-10-01_15h10.07.162,Trial_mult,2023.2.1,59.82632409840569,2024-10-01 15h10.32.916240 -0400,
18,block1_trial18_attendleft_leadtarget.wav,0,17,17,17,125.19511630013585,,,,,,,125.19517580000684,125.21231020009145,2.016946299932897,131.03387799998745,131.03388899983838,131.05031919991598,131.05031919991598,132.2527121999301,"['2', '2', '1']","[0.29100209986791015, 0.7075788998045027]","[0.12812120001763105, 0.1200713999569416]",2,2,1,716,001,2024-10-01_15h10.07.162,Trial_mult,2023.2.1,59.82632409840569,2024-10-01 15h10.32.916240 -0400,
19,block1_trial19_attendright_leadtarget.wav,0,18,18,18,132.26737410016358,,,,,,,132.26742970012128,132.28468269994482,2.016307800076902,138.13999810023233,138.1400117999874,138.15607989998534,138.15607989998534,139.5420082001947,"['1', '1', '3']","[0.6019113999791443, 0.9937530998140574]","[0.1766717997379601, 0.1760582998394966]",1,1,3,716,001,2024-10-01_15h10.07.162,Trial_mult,2023.2.1,59.82632409840569,2024-10-01 15h10.32.916240 -0400,
20,block1_trial20_attendright_leadtarget.wav,0,19,19,19,139.5566115998663,,,,,,,139.55667690001428,139.5733723002486,2.0162955997511744,145.42878310009837,145.42879510018975,145.44541000016034,145.44541000016034,146.53085350012407,"['2', '3', '1']","[0.3277830998413265, 0.6797989998012781]","[0.16901340009644628, 0.15220060013234615]",2,3,1,716,001,2024-10-01_15h10.07.162,Trial_mult,2023.2.1,59.82632409840569,2024-10-01 15h10.32.916240 -0400,
21,block1_trial21_attendright_leadtarget.wav,0,20,20,20,146.54547100001946,,,,,,,146.54552350006998,146.56258120015264,2.016328599769622,152.40155330020934,152.40156720019877,152.41760449996218,152.41760449996218,153.51961209997535,"['2', '2', '1']","[0.31559000024572015, 0.7479821001179516]","[0.15241310000419617, 0.16924510011449456]",2,2,1,716,001,2024-10-01_15h10.07.162,Trial_mult,2023.2.1,59.82632409840569,2024-10-01 15h10.32.916240 -0400,
22,block1_trial22_attendright_leadmasker.wav,0,21,21,21,153.53442429983988,,,,,,,153.53447519987822,153.55121880024672,2.016634099651128,159.4063916001469,159.40640249988064,159.42301659984514,159.42301659984514,161.25917130010203,"['3', '1', '2']","[0.7753410004079342, 1.1583210001699626]","[0.17679059971123934, 0.19264100026339293]",3,1,2,716,001,2024-10-01_15h10.07.162,Trial_mult,2023.2.1,59.82632409840569,2024-10-01 15h10.32.916240 -0400,
23,block1_trial23_attendright_leadmasker.wav,0,22,22,22,161.2739299000241,,,,,,,161.2739853998646,161.29107110016048,2.016651699785143,167.11785789998248,167.1178695000708,167.12841610005125,167.12841610005125,168.8980666999705,"['1', '1', '3']","[0.8533586002886295, 1.3088238001801074]","[0.1351383998990059, 0.19212580006569624]",1,1,3,716,001,2024-10-01_15h10.07.162,Trial_mult,2023.2.1,59.82632409840569,2024-10-01 15h10.32.916240 -0400,
24,block1_trial24_attendright_leadtarget.wav,0,23,23,23,168.9134752000682,,,,,,,168.91353939985856,168.93018150003627,2.0169048998504877,174.7851416002959,174.78515490004793,174.80164200020954,174.80164200020954,175.83681550016627,"['2', '1', '1']","[0.3080156999640167, 0.6448993999511003]","[0.14350209990516305, 0.13435389986261725]",2,1,1,716,001,2024-10-01_15h10.07.162,Trial_mult,2023.2.1,59.82632409840569,2024-10-01 15h10.32.916240 -0400,
25,block1_trial25_attendright_leadtarget.wav,0,24,24,24,175.85302329994738,,,,,,,175.85310039995238,175.8696866002865,2.016665100120008,181.7077863998711,181.70779700018466,181.72409739997238,181.72409739997238,182.89292650017887,"['1', '2', '1']","[0.3297043996863067, 0.6980506000109017]","[0.14419790031388402, 0.1515464000403881]",1,2,1,716,001,2024-10-01_15h10.07.162,Trial_mult,2023.2.1,59.82632409840569,2024-10-01 15h10.32.916240 -0400,
26,block1_trial26_attendleft_leadmasker.wav,0,25,25,25,182.90797130018473,,,,,,,182.90802669990808,182.92487019998953,2.0165254999883473,188.7634807000868,188.76349300006405,188.78041470004246,188.78041470004246,190.19846379989758,"['3', '2', '2']","[0.5374741000123322, 0.9615245996974409]","[0.13536869967356324, 0.183219900354743]",3,2,2,716,001,2024-10-01_15h10.07.162,Trial_mult,2023.2.1,59.82632409840569,2024-10-01 15h10.32.916240 -0400,
27,block1_trial27_attendleft_leadmasker.wav,0,26,26,26,190.21377769997343,,,,,,,190.21383110014722,190.2307671001181,2.016883600037545,196.05266379984096,196.05267570028082,196.06916730012745,196.06916730012745,197.30521639995277,"['2', '3', '2']","[0.43256849981844425, 0.8738313000649214]","[0.14441730035468936, 0.17463049991056323]",2,3,2,716,001,2024-10-01_15h10.07.162,Trial_mult,2023.2.1,59.82632409840569,2024-10-01 15h10.32.916240 -0400,
28,block1_trial28_attendleft_leadtarget.wav,0,27,27,27,197.31953660026193,,,,,,,197.31958980020136,197.33678770018741,2.0159436999820173,203.1584609001875,203.1584735000506,203.17559720017016,203.17559720017016,204.21069229999557,"['3', '2', '3']","[0.31826090021058917, 0.7115430999547243]","[0.19208319997414947, 0.17389360023662448]",3,2,3,716,001,2024-10-01_15h10.07.162,Trial_mult,2023.2.1,59.82632409840569,2024-10-01 15h10.32.916240 -0400,
29,block1_trial29_attendright_leadmasker.wav,0,28,28,28,204.2251144000329,,,,,,,204.22517509991303,204.24202390015125,2.0158863998949528,210.08025710005313,210.08026740001515,210.0968247000128,210.0968247000128,211.24971130024642,"['2', '1', '1']","[0.38819479988887906, 0.7737586000002921]","[0.1368258004076779, 0.15899639995768666]",2,1,1,716,001,2024-10-01_15h10.07.162,Trial_mult,2023.2.1,59.82632409840569,2024-10-01 15h10.32.916240 -0400,
30,block1_trial30_attendright_leadtarget.wav,0,29,29,29,211.2640606998466,,,,,,,211.26412250008434,211.28180410014465,2.0162554001435637,217.13654230022803,217.13655429985374,217.15316000021994,217.15316000021994,218.25430280016735,"['1', '1', '2']","[0.29328500013798475, 0.7002344001084566]","[0.1275653000921011, 0.1444522999227047]",1,1,2,716,001,2024-10-01_15h10.07.162,Trial_mult,2023.2.1,59.82632409840569,2024-10-01 15h10.32.916240 -0400,
31,block1_trial31_attendleft_leadtarget.wav,0,30,30,30,218.2697598002851,,,,,,,218.2698274999857,218.2864482998848,2.016751399729401,224.14186129998416,224.14187660021707,224.1580664999783,224.1580664999783,225.14343150006607,"['1', '2', '3']","[0.3190041999332607, 0.647063700016588]","[0.12160129984840751, 0.15278179990127683]",1,2,3,716,001,2024-10-01_15h10.07.162,Trial_mult,2023.2.1,59.82632409840569,2024-10-01 15h10.32.916240 -0400,
32,block1_trial32_attendleft_leadtarget.wav,0,31,31,31,225.15858370019123,,,,,,,225.15863949991763,225.17542369989678,2.016997099854052,231.01356359990314,231.01357469987124,231.03006910020486,231.03006910020486,232.19942170009017,"['2', '1', '2']","[0.3272759998217225, 0.767539800144732]","[0.16073740040883422, 0.15178290009498596]",2,1,2,716,001,2024-10-01_15h10.07.162,Trial_mult,2023.2.1,59.82632409840569,2024-10-01 15h10.32.916240 -0400,
33,block1_trial33_attendleft_leadmasker.wav,0,32,32,32,232.21436299989,,,,,,,232.21443680021912,232.23166730022058,2.016625599935651,238.0695382002741,238.06954960012808,238.0864423001185,238.0864423001185,239.40563639998436,"['2', '1', '1']","[0.4226994002237916, 0.8481185003183782]","[0.13683219999074936, 0.14253389975056052]",2,1,1,716,001,2024-10-01_15h10.07.162,Trial_mult,2023.2.1,59.82632409840569,2024-10-01 15h10.32.916240 -0400,
34,block1_trial34_attendright_leadtarget.wav,0,33,33,33,239.42021830007434,,,,,,,239.42028840025887,239.43670429987833,2.0159343001432717,245.27565910015255,245.27567039988935,245.29200959997252,245.29200959997252,246.54376409994438,"['2', '1', '1']","[0.4335733000189066, 0.8266289997845888]","[0.15144129982218146, 0.15884250029921532]",2,1,1,716,001,2024-10-01_15h10.07.162,Trial_mult,2023.2.1,59.82632409840569,2024-10-01 15h10.32.916240 -0400,
35,block1_trial35_attendright_leadmasker.wav,0,34,34,34,246.55982160009444,,,,,,,246.55989569984376,246.57636300008744,2.0167081002146006,252.4309716001153,252.4309835000895,252.4475420000963,252.4475420000963,253.48331880010664,"['3', '2', '2']","[0.2943932004272938, 0.6623878004029393]","[0.19976159976795316, 0.18324679974466562]",3,2,2,716,001,2024-10-01_15h10.07.162,Trial_mult,2023.2.1,59.82632409840569,2024-10-01 15h10.32.916240 -0400,
36,block1_trial36_attendleft_leadmasker.wav,0,35,35,35,253.4980343999341,,,,,,,253.4981026998721,253.51504020020366,2.0165186999365687,259.35304800001904,259.3530585998669,259.3697083001025,259.3697083001025,261.423034099862,"['3', '2', '2']","[1.428903799969703, 1.699466499965638]","[0.14322450011968613, 0.14523319993168116]",3,2,2,716,001,2024-10-01_15h10.07.162,Trial_mult,2023.2.1,59.82632409840569,2024-10-01 15h10.32.916240 -0400,
37,block1_trial37_attendleft_leadtarget.wav,0,36,36,36,261.43776059988886,,,,,,,261.4378336998634,261.454553199932,2.0161906997673213,267.29363609990105,267.2936474001035,267.31034190021455,267.31034190021455,268.72872180026025,"['3', '2', '1']","[0.7117804000154138, 1.014718800317496]","[0.16840990027412772, 0.20022989995777607]",3,2,1,716,001,2024-10-01_15h10.07.162,Trial_mult,2023.2.1,59.82632409840569,2024-10-01 15h10.32.916240 -0400,
38,block1_trial38_attendleft_leadmasker.wav,0,37,37,37,268.74361350014806,,,,,,,268.743681400083,268.7606386002153,2.0164401000365615,274.58267869986594,274.5826906999573,274.5992486998439,274.5992486998439,275.96716210013255,"['3', '1', '2']","[0.4229397000744939, 0.9501478001475334]","[0.28097299998626113, 0.19281999999657273]",3,1,2,716,001,2024-10-01_15h10.07.162,Trial_mult,2023.2.1,59.82632409840569,2024-10-01 15h10.32.916240 -0400,
39,block1_trial39_attendleft_leadtarget.wav,0,38,38,38,275.9828526000492,,,,,,,275.98292079987004,275.99942060001194,2.0172216999344528,281.8215960999951,281.8216075999662,281.83807259984314,281.83807259984314,283.08976870030165,"['1', '1', '2']","[0.46369289979338646, 0.86325170006603]","[0.16021010000258684, 0.1688923998735845]",1,1,2,716,001,2024-10-01_15h10.07.162,Trial_mult,2023.2.1,59.82632409840569,2024-10-01 15h10.32.916240 -0400,
40,block1_trial40_attendleft_leadmasker.wav,0,39,39,39,283.10508030001074,,,,,,,283.10513640008867,283.1218568002805,2.0169007000513375,288.9775120001286,288.9775233999826,288.9940891000442,288.9940891000442,289.99588980013505,"['3', '3', '3']","[0.307780500035733, 0.596147199627012]","[0.127314199693501, 0.17539470037445426]",3,3,3,716,001,2024-10-01_15h10.07.162,Trial_mult,2023.2.1,59.82632409840569,2024-10-01 15h10.32.916240 -0400,
41,block2_trial1_attendleft_leadmasker.wav,0,40,40,40,290.0105481999926,,,,,,,292.79666820028797,292.81293560005724,2.0183143001049757,298.63527450012043,298.6352865998633,298.65203580027446,298.65203580027446,299.77069750009105,"['1', '3', '1']","[0.4974667001515627, 0.7941081002354622]","[0.13720180001109838, 0.17516109999269247]",1,3,1,716,001,2024-10-01_15h10.07.162,Trial_mult,2023.2.1,59.82632409840569,2024-10-01 15h10.32.916240 -0400,
42,block2_trial2_attendleft_leadtarget.wav,0,41,41,41,299.78551500011235,,,,,,,299.7855875999667,299.80259610014036,2.0157547001726925,305.64090720005333,305.64092090027407,305.6568340999074,305.6568340999074,306.69198600016534,"['2', '2', '1']","[0.33231329964473844, 0.6927016996778548]","[0.1613486004061997, 0.15193659998476505]",2,2,1,716,001,2024-10-01_15h10.07.162,Trial_mult,2023.2.1,59.82632409840569,2024-10-01 15h10.32.916240 -0400,
43,block2_trial3_attendright_leadtarget.wav,0,42,42,42,306.7075884002261,,,,,,,306.7076685000211,306.7247005002573,2.0169958998449147,312.5629730001092,312.56298500020057,312.57947249989957,312.57947249989957,314.21527290018275,"['3', '1', '1']","[0.690431300085038, 1.2099422002211213]","[0.17654990032315254, 0.13606789987534285]",3,1,1,716,001,2024-10-01_15h10.07.162,Trial_mult,2023.2.1,59.82632409840569,2024-10-01 15h10.32.916240 -0400,
44,block2_trial4_attendright_leadtarget.wav,0,43,43,43,314.23081770027056,,,,,,,314.2308948999271,314.2475497000851,2.0162566998042166,320.0854437001981,320.085454700049,320.1019693999551,320.1019693999551,321.2703781002201,"['2', '3', '3']","[0.3988932999782264, 0.7672867001965642]","[0.16210220009088516, 0.18482289975509048]",2,3,3,716,001,2024-10-01_15h10.07.162,Trial_mult,2023.2.1,59.82632409840569,2024-10-01 15h10.32.916240 -0400,
45,block2_trial5_attendright_leadtarget.wav,0,44,44,44,321.2857208000496,,,,,,,321.28578800009564,321.3023942001164,2.0170502001419663,327.1405841000378,327.140596000012,327.15756870014593,327.15756870014593,328.67660970008,"['2', '3', '3']","[0.39970439998432994, 1.080765100196004]","[0.16896270029246807, 0.15188039978966117]",2,3,3,716,001,2024-10-01_15h10.07.162,Trial_mult,2023.2.1,59.82632409840569,2024-10-01 15h10.32.916240 -0400,
46,block2_trial6_attendright_leadmasker.wav,0,45,45,45,328.6917158998549,,,,,,,328.6917822002433,328.7087348001078,2.0166560001671314,334.5304352999665,334.53044679993764,334.5468609002419,334.5468609002419,336.5331190000288,"['3', '2', '3']","[1.4260297999717295, 1.7630932996980846]","[0.19232919998466969, 0.17659640032798052]",3,2,3,716,001,2024-10-01_15h10.07.162,Trial_mult,2023.2.1,59.82632409840569,2024-10-01 15h10.32.916240 -0400,
47,block2_trial7_attendright_leadtarget.wav,0,46,46,46,336.5485022999346,,,,,,,336.54858350008726,336.5649445001036,2.016837399918586,342.41998670017347,342.41999710025266,342.4366176002659,342.4366176002659,343.6054202001542,"['1', '1', '2']","[0.42564589995890856, 0.8098193001933396]","[0.1269268998876214, 0.15860219998285174]",1,1,2,716,001,2024-10-01_15h10.07.162,Trial_mult,2023.2.1,59.82632409840569,2024-10-01 15h10.32.916240 -0400,
48,block2_trial8_attendright_leadmasker.wav,0,47,47,47,343.62039380008355,,,,,,,343.6204535998404,343.6377679002471,2.0161731000989676,349.49244790012017,349.49245919985697,349.50907569983974,349.50907569983974,350.64423880027607,"['3', '2', '3']","[0.4809431997127831, 0.7851633997634053]","[0.1757299001328647, 0.19938370026648045]",3,2,3,716,001,2024-10-01_15h10.07.162,Trial_mult,2023.2.1,59.82632409840569,2024-10-01 15h10.32.916240 -0400,
49,block2_trial9_attendright_leadtarget.wav,0,48,48,48,350.65936589986086,,,,,,,350.6594301001169,350.67658729990944,2.0168691999278963,356.4983954001218,356.49840690009296,356.514661999885,356.514661999885,357.74974590027705,"['3', '2', '2']","[0.4825384998694062, 0.8672377001494169]","[0.16124030016362667, 0.15109899966046214]",3,2,2,716,001,2024-10-01_15h10.07.162,Trial_mult,2023.2.1,59.82632409840569,2024-10-01 15h10.32.916240 -0400,
50,block2_trial10_attendleft_leadmasker.wav,0,49,49,49,357.7654264001176,,,,,,,357.76550219999626,357.7822310999036,2.0174512998200953,363.60410590004176,363.6041176998988,363.62031889986247,363.62031889986247,364.6558868000284,"['2', '2', '2']","[0.36856200033798814, 0.713427500333637]","[0.12824679957702756, 0.11184099968522787]",2,2,2,716,001,2024-10-01_15h10.07.162,Trial_mult,2023.2.1,59.82632409840569,2024-10-01 15h10.32.916240 -0400,
51,block2_trial11_attendleft_leadmasker.wav,0,50,50,50,364.67127919988707,,,,,,,364.6713537001051,364.68788299988955,2.016574500128627,370.52622260013595,370.52623380022123,370.54287090012804,370.54287090012804,371.32798800012097,"['1', '2', '3']","[0.27037829998880625, 0.48653060011565685]","[0.12853039987385273, 0.15283129969611764]",1,2,3,716,001,2024-10-01_15h10.07.162,Trial_mult,2023.2.1,59.82632409840569,2024-10-01 15h10.32.916240 -0400,
52,block2_trial12_attendleft_leadmasker.wav,0,51,51,51,371.34298660000786,,,,,,,371.3430665000342,371.3596501001157,2.016208800021559,377.2143919002265,377.21440349984914,377.23133249999955,377.23133249999955,378.88359270012006,"['1', '3', '3']","[0.8790604998357594, 1.2859132001176476]","[0.15176769997924566, 0.1765532996505499]",1,3,3,716,001,2024-10-01_15h10.07.162,Trial_mult,2023.2.1,59.82632409840569,2024-10-01 15h10.32.916240 -0400,
53,block2_trial13_attendright_leadmasker.wav,0,52,52,52,378.8987087002024,,,,,,,378.89877730002627,378.91563539998606,2.016518199816346,384.7705562999472,384.7705681002699,384.7873467002064,384.7873467002064,385.7889788001776,"['1', '1', '1']","[0.37879509991034865, 0.6655571996234357]","[0.13592079980298877, 0.13643880002200603]",1,1,1,716,001,2024-10-01_15h10.07.162,Trial_mult,2023.2.1,59.82632409840569,2024-10-01 15h10.32.916240 -0400,
54,block2_trial14_attendright_leadmasker.wav,0,53,53,53,385.80455500027165,,,,,,,385.80462850024924,385.8215025002137,2.0168460002169013,391.6429314999841,391.6429469999857,391.659015300218,391.659015300218,392.64481589989737,"['1', '1', '2']","[0.4747093999758363, 0.6916193999350071]","[0.11945909960195422, 0.15154069988057017]",1,1,2,716,001,2024-10-01_15h10.07.162,Trial_mult,2023.2.1,59.82632409840569,2024-10-01 15h10.32.916240 -0400,
55,block2_trial15_attendleft_leadmasker.wav,0,54,54,54,392.65978670027107,,,,,,,392.65985669987276,392.67691930010915,2.0165031999349594,398.5318312002346,398.53184359986335,398.54794810013846,398.54794810013846,399.88367290003225,"['3', '2', '1']","[0.5617395001463592, 0.945288899820298]","[0.14345829980447888, 0.15331010008230805]",3,2,1,716,001,2024-10-01_15h10.07.162,Trial_mult,2023.2.1,59.82632409840569,2024-10-01 15h10.32.916240 -0400,
56,block2_trial16_attendleft_leadtarget.wav,0,55,55,55,399.89889150019735,,,,,,,399.89896030025557,399.9159039002843,2.0165232000872493,405.7712532002479,405.77126470021904,405.78785749990493,405.78785749990493,406.8891651001759,"['2', '2', '3']","[0.38512250036001205, 0.7787009002640843]","[0.17667829990386963, 0.19895680015906692]",2,2,3,716,001,2024-10-01_15h10.07.162,Trial_mult,2023.2.1,59.82632409840569,2024-10-01 15h10.32.916240 -0400,
57,block2_trial17_attendleft_leadmasker.wav,0,56,56,56,406.90521309990436,,,,,,,406.9052876001224,406.9213693998754,2.01727439975366,412.7766153998673,412.77662680018693,412.7928696000017,412.7928696000017,413.8952478999272,"['2', '1', '3']","[0.3489289996214211, 0.7336374996230006]","[0.15142970019951463, 0.14295850042253733]",2,1,3,716,001,2024-10-01_15h10.07.162,Trial_mult,2023.2.1,59.82632409840569,2024-10-01 15h10.32.916240 -0400,
58,block2_trial18_attendleft_leadtarget.wav,0,57,57,57,413.91020580008626,,,,,,,413.910280500073,413.926967700012,2.016091300174594,419.7494061002508,419.7494172998704,419.7658064002171,419.7658064002171,420.8670689999126,"['1', '1', '2']","[0.3273115996271372, 0.7203346998430789]","[0.1444073999300599, 0.13559489976614714]",1,1,2,716,001,2024-10-01_15h10.07.162,Trial_mult,2023.2.1,59.82632409840569,2024-10-01 15h10.32.916240 -0400,
59,block2_trial19_attendleft_leadmasker.wav,0,58,58,58,420.8825679998845,,,,,,,420.8826427999884,420.8996311002411,2.017104100435972,426.75436310004443,426.75437390012667,426.77072559995577,426.77072559995577,427.923400899861,"['2', '2', '2']","[0.315760999917984, 0.7543679997324944]","[0.09565419983118773, 0.14493950037285686]",2,2,2,716,001,2024-10-01_15h10.07.162,Trial_mult,2023.2.1,59.82632409840569,2024-10-01 15h10.32.916240 -0400,
60,block2_trial20_attendright_leadmasker.wav,0,59,59,59,427.93851910019293,,,,,,,427.93858599988744,427.9552448000759,2.0158994998782873,433.8101964001544,433.81020920025185,433.82665860001,433.82665860001,435.16209959983826,"['3', '3', '1']","[0.4915037997998297, 0.9235608000308275]","[0.1670735999941826, 0.17603540001437068]",3,3,1,716,001,2024-10-01_15h10.07.162,Trial_mult,2023.2.1,59.82632409840569,2024-10-01 15h10.32.916240 -0400,
61,block2_trial21_attendright_leadtarget.wav,0,60,60,60,435.17758829984814,,,,,,,435.1776576000266,435.1937779998407,2.017035299912095,441.0162805002183,441.0162953999825,441.0326417000033,441.0326417000033,442.1013283999637,"['1', '3', '3']","[0.3325718999840319, 0.684381099883467]","[0.1443644999526441, 0.14455540012568235]",1,3,3,716,001,2024-10-01_15h10.07.162,Trial_mult,2023.2.1,59.82632409840569,2024-10-01 15h10.32.916240 -0400,
62,block2_trial22_attendleft_leadtarget.wav,0,61,61,61,442.11651010019705,,,,,,,442.1165848001838,442.13328169984743,2.016019099857658,447.9876323998906,447.98764370009303,448.00408270023763,448.00408270023763,449.05614269990474,"['3', '2', '3']","[0.3212788999080658, 0.6968363001942635]","[0.15155059983953834, 0.16860909992828965]",3,2,3,716,001,2024-10-01_15h10.07.162,Trial_mult,2023.2.1,59.82632409840569,2024-10-01 15h10.32.916240 -0400,
63,block2_trial23_attendleft_leadtarget.wav,0,62,62,62,449.0720162000507,,,,,,,449.07208940014243,449.0883324001916,2.0166695001535118,454.94361100019887,454.94362309994176,454.96025349991396,454.96025349991396,455.9955740002915,"['2', '2', '1']","[0.3091633003205061, 0.6691994001157582]","[0.12024449976161122, 0.16032049991190434]",2,2,1,716,001,2024-10-01_15h10.07.162,Trial_mult,2023.2.1,59.82632409840569,2024-10-01 15h10.32.916240 -0400,
64,block2_trial24_attendleft_leadtarget.wav,0,63,63,63,456.01086000027135,,,,,,,456.0109341000207,456.02732159988955,2.0165737997740507,461.8661797000095,461.8661910998635,461.8830474000424,461.8830474000424,463.2348686000332,"['2', '1', '2']","[0.4740466997027397, 0.8345853998325765]","[0.13599640037864447, 0.20944090001285076]",2,1,2,716,001,2024-10-01_15h10.07.162,Trial_mult,2023.2.1,59.82632409840569,2024-10-01 15h10.32.916240 -0400,
65,block2_trial25_attendright_leadmasker.wav,0,64,64,64,463.2500526001677,,,,,,,463.2501191999763,463.26645800005645,2.016609499696642,469.104944200255,469.10495579987764,469.12140069995075,469.12140069995075,471.0573137002066,"['2', '3', '3']","[1.3081639995798469, 1.6040608999319375]","[0.13659230014309287, 0.15302539989352226]",2,3,3,716,001,2024-10-01_15h10.07.162,Trial_mult,2023.2.1,59.82632409840569,2024-10-01 15h10.32.916240 -0400,
66,block2_trial26_attendright_leadmasker.wav,0,65,65,65,471.0726510002278,,,,,,,471.0727168000303,471.08934399997815,2.016734799835831,476.91129800025374,476.91130990022793,476.9280809001066,476.9280809001066,477.97993410006166,"['3', '1', '2']","[0.3094104998745024, 0.6691387998871505]","[0.17559800017625093, 0.17736810026690364]",3,1,2,716,001,2024-10-01_15h10.07.162,Trial_mult,2023.2.1,59.82632409840569,2024-10-01 15h10.32.916240 -0400,
67,block2_trial27_attendright_leadtarget.wav,0,66,66,66,477.99543230002746,,,,,,,477.99550580000505,478.01208120025694,2.0163716999813914,483.83404739992693,483.8340584002435,483.85027190018445,483.85027190018445,485.20262400014326,"['2', '2', '3']","[0.5315821999683976, 0.9554940001107752]","[0.12719879997894168, 0.15265379985794425]",2,2,3,716,001,2024-10-01_15h10.07.162,Trial_mult,2023.2.1,59.82632409840569,2024-10-01 15h10.32.916240 -0400,
68,block2_trial28_attendleft_leadmasker.wav,0,67,67,67,485.2174680000171,,,,,,,485.21754270000383,485.23398629995063,2.0160291003994644,491.0726004000753,491.0726121002808,491.0886904001236,491.0886904001236,492.2746828002855,"['2', '1', '1']","[0.5329735004343092, 0.8361337999813259]","[0.128390499856323, 0.17725980002433062]",2,1,1,716,001,2024-10-01_15h10.07.162,Trial_mult,2023.2.1,59.82632409840569,2024-10-01 15h10.32.916240 -0400,
69,block2_trial29_attendright_leadtarget.wav,0,68,68,68,492.2897423999384,,,,,,,492.28981660027057,492.3066159002483,2.016561800148338,498.128219100181,498.1282326001674,498.14449620014057,498.14449620014057,499.1466788998805,"['2', '2', '2']","[0.28536529978737235, 0.6053669997490942]","[0.15212560025975108, 0.19934270018711686]",2,2,2,716,001,2024-10-01_15h10.07.162,Trial_mult,2023.2.1,59.82632409840569,2024-10-01 15h10.32.916240 -0400,
70,block2_trial30_attendleft_leadtarget.wav,0,69,69,69,499.16171830007806,,,,,,,499.16177160013467,499.1785412002355,2.01700869994238,505.0004040999338,505.000415999908,505.01664760010317,505.01664760010317,506.16923410026357,"['2', '3', '1']","[0.3264917000196874, 0.7410875000059605]","[0.1898632999509573, 0.1285063000395894]",2,3,1,716,001,2024-10-01_15h10.07.162,Trial_mult,2023.2.1,59.82632409840569,2024-10-01 15h10.32.916240 -0400,
71,block2_trial31_attendright_leadmasker.wav,0,70,70,70,506.1845490001142,,,,,,,506.18461900018156,506.2009037998505,2.016295399982482,512.0229754000902,512.0229862001725,512.0394987999462,512.0394987999462,513.8756793001667,"['2', '1', '1']","[0.9185671000741422, 1.3578897002153099]","[0.14347210014238954, 0.15151009988039732]",2,1,1,716,001,2024-10-01_15h10.07.162,Trial_mult,2023.2.1,59.82632409840569,2024-10-01 15h10.32.916240 -0400,
72,block2_trial32_attendleft_leadtarget.wav,0,71,71,71,513.8909872998483,,,,,,,513.8910678001121,513.9071378000081,2.016065899748355,519.7288647000678,519.7288758000359,519.7455629999749,519.7455629999749,521.1646107002161,"['3', '2', '2']","[0.5405562999658287, 0.9164129998534918]","[0.13580630021169782, 0.16776450024917722]",3,2,2,716,001,2024-10-01_15h10.07.162,Trial_mult,2023.2.1,59.82632409840569,2024-10-01 15h10.32.916240 -0400,
73,block2_trial33_attendright_leadtarget.wav,0,72,72,72,521.1797237000428,,,,,,,521.1797976000234,521.1966555998661,2.016781599726528,527.0179135999642,527.0179254999384,527.0344774001278,527.0344774001278,528.3370151002891,"['3', '3', '1']","[0.6043107998557389, 0.97204319993034]","[0.1677283002063632, 0.15883539989590645]",3,3,1,716,001,2024-10-01_15h10.07.162,Trial_mult,2023.2.1,59.82632409840569,2024-10-01 15h10.32.916240 -0400,
74,block2_trial34_attendright_leadtarget.wav,0,73,73,73,528.3520128000528,,,,,,,528.3520829998888,528.3688904000446,2.0170311997644603,534.2246845001355,534.2246961002238,534.2411358002573,534.2411358002573,535.3930505998433,"['1', '2', '3']","[0.4847587002441287, 0.8118112003430724]","[0.13605029974132776, 0.200324899982661]",1,2,3,716,001,2024-10-01_15h10.07.162,Trial_mult,2023.2.1,59.82632409840569,2024-10-01 15h10.32.916240 -0400,
75,block2_trial35_attendright_leadmasker.wav,0,74,74,74,535.4082229998894,,,,,,,535.4082963000983,535.4243968999945,2.0161930001340806,541.2802627999336,541.2802742999047,541.29626440024,541.29626440024,542.3981248000637,"['3', '3', '1']","[0.3575955000706017, 0.7502379999496043]","[0.16050869971513748, 0.18321170005947351]",3,3,1,716,001,2024-10-01_15h10.07.162,Trial_mult,2023.2.1,59.82632409840569,2024-10-01 15h10.32.916240 -0400,
76,block2_trial36_attendleft_leadtarget.wav,0,75,75,75,542.413956400007,,,,,,,542.4140353999101,542.4302129000425,2.01631429977715,548.28510500025,548.2851153998636,548.3016602001153,548.3016602001153,549.7377824001014,"['3', '2', '3']","[0.7443438996560872, 1.0877105998806655]","[0.15186280012130737, 0.1838072999380529]",3,2,3,716,001,2024-10-01_15h10.07.162,Trial_mult,2023.2.1,59.82632409840569,2024-10-01 15h10.32.916240 -0400,
77,block2_trial37_attendleft_leadmasker.wav,0,76,76,76,549.7530745002441,,,,,,,549.75315040024,549.7696285001002,2.016227299813181,555.6247844998725,555.6248021000065,555.6410558000207,555.6410558000207,559.7442028000951,"['3', '2']","[1.1008943999186158, 1.4606097000651062]","[0.12838590005412698, 0.19165229983627796]",3,2,NA,716,001,2024-10-01_15h10.07.162,Trial_mult,2023.2.1,59.82632409840569,2024-10-01 15h10.32.916240 -0400,
78,block2_trial38_attendleft_leadtarget.wav,0,77,77,77,559.7608733000234,,,,,,,559.7609509001486,559.7777410000563,2.023668000008911,565.6162304002792,565.6162443999201,565.6327411001548,565.6327411001548,566.9846582999453,"['2', '1', '1']","[0.5893238997086883, 0.9567956998944283]","[0.18371280003339052, 0.19220539974048734]",2,1,1,716,001,2024-10-01_15h10.07.162,Trial_mult,2023.2.1,59.82632409840569,2024-10-01 15h10.32.916240 -0400,
79,block2_trial39_attendright_leadmasker.wav,0,78,78,78,566.9997815000825,,,,,,,566.9998558000661,567.0164736001752,2.0163896000012755,572.8558269999921,572.8558408999816,572.8717479999177,572.8717479999177,574.3743668003008,"['2', '2', '3']","[0.5252002999186516, 1.0378865995444357]","[0.2098010997287929, 0.18456280045211315]",2,2,3,716,001,2024-10-01_15h10.07.162,Trial_mult,2023.2.1,59.82632409840569,2024-10-01 15h10.32.916240 -0400,
80,block2_trial40_attendleft_leadmasker.wav,0,79,79,79,574.3892744998448,,,,,,,574.3893602001481,574.4057336999103,2.0163774001412094,580.2441842001863,580.2441957001574,580.2612092001364,580.2612092001364,581.7136607998982,"['2', '1', '1']","[0.49644620018079877, 0.9923053001984954]","[0.14461069973185658, 0.12805439997464418]",2,1,1,716,001,2024-10-01_15h10.07.162,Trial_mult,2023.2.1,59.82632409840569,2024-10-01 15h10.32.916240 -0400,
81,block3_trial1_attendright_leadmasker.wav,0,80,80,80,581.7284736000001,,,,,,,583.5799529999495,583.5966612999327,2.0188019000925124,589.435249700211,589.4352612001821,589.4519098000601,589.4519098000601,591.0374737000093,"['2', '3', '3']","[0.8250144999474287, 1.1694184998050332]","[0.1604317999444902, 0.16873980034142733]",2,3,3,716,001,2024-10-01_15h10.07.162,Trial_mult,2023.2.1,59.82632409840569,2024-10-01 15h10.32.916240 -0400,
82,block3_trial2_attendright_leadmasker.wav,0,81,81,81,591.0528553002514,,,,,,,591.0529237999581,591.069242999889,2.0161414998583496,596.9075271002948,596.9075392000377,596.9237390002236,596.9237390002236,598.0427176002413,"['3', '3', '3']","[0.4091117000207305, 0.7623288999311626]","[0.1608744002878666, 0.15948170004412532]",3,3,3,716,001,2024-10-01_15h10.07.162,Trial_mult,2023.2.1,59.82632409840569,2024-10-01 15h10.32.916240 -0400,
83,block3_trial3_attendright_leadmasker.wav,0,82,82,82,598.0579383000731,,,,,,,598.0580124999397,598.0752218998969,2.0167088001035154,603.9292768999003,603.9292886001058,603.9459919002838,603.9459919002838,605.0321929999627,"['2', '1', '3']","[0.36313269985839725, 0.7075594998896122]","[0.1527273003011942, 0.14479320030659437]",2,1,3,716,001,2024-10-01_15h10.07.162,Trial_mult,2023.2.1,59.82632409840569,2024-10-01 15h10.32.916240 -0400,
84,block3_trial4_attendright_leadmasker.wav,0,83,83,83,605.0469587999396,,,,,,,605.0470298998989,605.0640088999644,2.0162448999471962,610.8854927001521,610.8855043002404,610.9021696001291,610.9021696001291,612.2044839998707,"['3', '2', '2']","[0.471255199983716, 0.896174400113523]","[0.18497580010443926, 0.17506670020520687]",3,2,2,716,001,2024-10-01_15h10.07.162,Trial_mult,2023.2.1,59.82632409840569,2024-10-01 15h10.32.916240 -0400,
85,block3_trial5_attendright_leadmasker.wav,0,84,84,84,612.2196768000722,,,,,,,612.2197540001944,612.2365449001081,2.016334899701178,618.0912705999799,618.0912822000682,618.1084592998959,618.1084592998959,619.3767638001591,"['2', '3', '3']","[0.41786819975823164, 0.848711300175637]","[0.14426840003579855, 0.20867429999634624]",2,3,3,716,001,2024-10-01_15h10.07.162,Trial_mult,2023.2.1,59.82632409840569,2024-10-01 15h10.32.916240 -0400,
86,block3_trial6_attendright_leadtarget.wav,0,85,85,85,619.3921501999721,,,,,,,619.3922409000807,619.4090078999288,2.0167793999426067,625.2474295999855,625.2474412000738,625.2640515998937,625.2640515998937,626.2992314998992,"['2', '2', '1']","[0.3177745998837054, 0.7021277998574078]","[0.1363628003746271, 0.15196270029991865]",2,2,1,716,001,2024-10-01_15h10.07.162,Trial_mult,2023.2.1,59.82632409840569,2024-10-01 15h10.32.916240 -0400,
87,block3_trial7_attendleft_leadmasker.wav,0,86,86,86,626.3142734002322,,,,,,,626.3143728002906,626.3305899002589,2.0157635002397,632.1526811001822,632.1526959002949,632.1686531002633,632.1686531002633,633.2712580002844,"['3', '3', '2']","[0.42970369989052415, 0.8043193998746574]","[0.18349190009757876, 0.17788439989089966]",3,3,2,716,001,2024-10-01_15h10.07.162,Trial_mult,2023.2.1,59.82632409840569,2024-10-01 15h10.32.916240 -0400,
88,block3_trial8_attendright_leadmasker.wav,0,87,87,87,633.2862125001848,,,,,,,633.2862801002339,633.3031131001189,2.016185600310564,639.1248226999305,639.1248341999017,639.1413858998567,639.1413858998567,640.2435520002618,"['2', '1', '1']","[0.37578139966353774, 0.7374165998771787]","[0.1757420003414154, 0.1744367997162044]",2,1,1,716,001,2024-10-01_15h10.07.162,Trial_mult,2023.2.1,59.82632409840569,2024-10-01 15h10.32.916240 -0400,
89,block3_trial9_attendright_leadtarget.wav,0,88,88,88,640.2589843999594,,,,,,,640.2590592000633,640.275644400157,2.0163610000163317,646.1302256998606,646.1302360999398,646.1467261998914,646.1467261998914,647.5154086998664,"['1', '1', '2']","[0.6109707998111844, 0.9461082997731864]","[0.15291000017896295, 0.16943350015208125]",1,1,2,716,001,2024-10-01_15h10.07.162,Trial_mult,2023.2.1,59.82632409840569,2024-10-01 15h10.32.916240 -0400,
90,block3_trial10_attendleft_leadtarget.wav,0,89,89,89,647.5311151002534,,,,,,,647.5311862002127,647.5477482001297,2.0171548002399504,653.3862318000756,653.3862429000437,653.4029272999614,653.4029272999614,654.6384912002832,"['1', '3', '2']","[0.4428665000014007, 0.8665889999829233]","[0.14363189972937107, 0.15240509994328022]",1,3,2,716,001,2024-10-01_15h10.07.162,Trial_mult,2023.2.1,59.82632409840569,2024-10-01 15h10.32.916240 -0400,
91,block3_trial11_attendright_leadtarget.wav,0,90,90,90,654.6539324000478,,,,,,,654.6540117003024,654.6700317999348,2.016679000109434,660.5254581999034,660.5254691001028,660.5414832001552,660.5414832001552,662.0612670001574,"['2', '3', '1']","[0.7444234001450241, 1.0875504999421537]","[0.1831462997943163, 0.16823850013315678]",2,3,1,716,001,2024-10-01_15h10.07.162,Trial_mult,2023.2.1,59.82632409840569,2024-10-01 15h10.32.916240 -0400,
92,block3_trial12_attendleft_leadmasker.wav,0,91,91,91,662.0762070999481,,,,,,,662.07627459988,662.0934977000579,2.016058699693531,667.9148254999891,667.9148384002037,667.9315021000803,667.9315021000803,668.9995448002592,"['2', '2', '3']","[0.30629129987210035, 0.6905017998069525]","[0.15253610024228692, 0.17535470006987453]",2,2,3,716,001,2024-10-01_15h10.07.162,Trial_mult,2023.2.1,59.82632409840569,2024-10-01 15h10.32.916240 -0400,
93,block3_trial13_attendleft_leadtarget.wav,0,92,92,92,669.015578399878,,,,,,,669.0156530998647,669.0314648002386,2.0165129001252353,674.8874194999225,674.8874309002422,674.9033747999929,674.9033747999929,675.8888667998835,"['1', '1', '2']","[0.2617403999902308, 0.6542638000100851]","[0.15322380000725389, 0.17604089993983507]",1,1,2,716,001,2024-10-01_15h10.07.162,Trial_mult,2023.2.1,59.82632409840569,2024-10-01 15h10.32.916240 -0400,
94,block3_trial14_attendleft_leadtarget.wav,0,93,93,93,675.9042016998865,,,,,,,675.9042790001258,675.9209028999321,2.016380100045353,681.759412100073,681.7594261001796,681.7756171999499,681.7756171999499,682.7272944999859,"['3', '3', '3']","[0.2538670999929309, 0.5896205003373325]","[0.15281670028343797, 0.1605078997090459]",3,3,3,716,001,2024-10-01_15h10.07.162,Trial_mult,2023.2.1,59.82632409840569,2024-10-01 15h10.32.916240 -0400,
95,block3_trial15_attendleft_leadtarget.wav,0,94,94,94,682.7428506002761,,,,,,,682.7429255000316,682.7594332001172,2.0164683000184596,688.5814840001985,688.5814960002899,688.5984033001587,688.5984033001587,689.749822600279,"['3', '3', '1']","[0.48032870003953576, 0.8080007000826299]","[0.1343576000072062, 0.15888970019295812]",3,3,1,716,001,2024-10-01_15h10.07.162,Trial_mult,2023.2.1,59.82632409840569,2024-10-01 15h10.32.916240 -0400,
96,block3_trial16_attendright_leadtarget.wav,0,95,95,95,689.7648904002272,,,,,,,689.7649550000206,689.7820741999894,2.0162516003474593,695.636466300115,695.6364774000831,695.6532840998843,695.6532840998843,697.0723931002431,"['1', '1', '1']","[0.7124164998531342, 1.0877426997758448]","[0.16769820032641292, 0.16112840035930276]",1,1,1,716,001,2024-10-01_15h10.07.162,Trial_mult,2023.2.1,59.82632409840569,2024-10-01 15h10.32.916240 -0400,
97,block3_trial17_attendleft_leadtarget.wav,0,96,96,96,697.0877338000573,,,,,,,697.0878086001612,697.1041640001349,2.016956599894911,702.9257877999917,702.9257988999598,702.9420091002248,702.9420091002248,703.9947072002105,"['2', '1', '2']","[0.2561070001684129, 0.6400148998945951]","[0.16833839984610677, 0.1760880001820624]",2,1,2,716,001,2024-10-01_15h10.07.162,Trial_mult,2023.2.1,59.82632409840569,2024-10-01 15h10.32.916240 -0400,
98,block3_trial18_attendleft_leadmasker.wav,0,97,97,97,704.0096348002553,,,,,,,704.0097093000077,704.0265640001744,2.0162243000231683,709.8478820002638,709.8478938001208,709.8643585001118,709.8643585001118,713.8190055000596,"['1', '2', '2']","[1.0861375997774303, 1.6772930999286473]","[0.2002500002272427, 0.19140189979225397]",1,2,2,716,001,2024-10-01_15h10.07.162,Trial_mult,2023.2.1,59.82632409840569,2024-10-01 15h10.32.916240 -0400,
99,block3_trial19_attendright_leadmasker.wav,0,98,98,98,713.83421120001,,,,,,,713.8342792000622,713.8512130999006,2.0167470001615584,719.6892066998407,719.6892198002897,719.7055693999864,719.7055693999864,721.5082911001518,"['1', '2', '3']","[1.1577070001512766, 1.4918233999051154]","[0.15861959988251328, 0.1601642002351582]",1,2,3,716,001,2024-10-01_15h10.07.162,Trial_mult,2023.2.1,59.82632409840569,2024-10-01 15h10.32.916240 -0400,
100,block3_trial20_attendright_leadmasker.wav,0,99,99,99,721.5237120999955,,,,,,,721.5237814001739,721.5404281001538,2.017310199793428,727.3627428002656,727.3627562001348,727.3796669999138,727.3796669999138,728.3637526999228,"['2', '3', '1']","[0.30517209973186255, 0.6578776999376714]","[0.16938230022788048, 0.19196539977565408]",2,3,1,716,001,2024-10-01_15h10.07.162,Trial_mult,2023.2.1,59.82632409840569,2024-10-01 15h10.32.916240 -0400,
101,block3_trial21_attendright_leadtarget.wav,0,100,100,100,728.3793541998602,,,,,,,728.3794304002076,728.3959536999464,2.0166728999465704,734.2344586001709,734.2344701001421,734.2513871002011,734.2513871002011,735.8037252998911,"['2', '2', '1']","[0.8257712000049651, 1.2098524998873472]","[0.15241850027814507, 0.17560350010171533]",2,2,1,716,001,2024-10-01_15h10.07.162,Trial_mult,2023.2.1,59.82632409840569,2024-10-01 15h10.32.916240 -0400,
102,block3_trial22_attendright_leadmasker.wav,0,101,101,101,735.8186457999982,,,,,,,735.8187132002786,735.8353782002814,2.0165306995622814,741.6566775999963,741.6566886999644,741.6734126000665,741.6734126000665,743.1429782998748,"['3', '2', '1']","[0.7645310000516474, 1.1238996000029147]","[0.14374310011044145, 0.15209690015763044]",3,2,1,716,001,2024-10-01_15h10.07.162,Trial_mult,2023.2.1,59.82632409840569,2024-10-01 15h10.32.916240 -0400,
103,block3_trial23_attendright_leadtarget.wav,0,102,102,102,743.1580436001532,,,,,,,743.1581100001931,743.1749658999033,2.0164379999041557,748.9971056999639,748.9971165000461,749.0129839000292,749.0129839000292,750.3987338002771,"['3', '1', '1']","[0.65685940021649, 1.016368499957025]","[0.14320389972999692, 0.15251420019194484]",3,1,1,716,001,2024-10-01_15h10.07.162,Trial_mult,2023.2.1,59.82632409840569,2024-10-01 15h10.32.916240 -0400,
104,block3_trial24_attendleft_leadmasker.wav,0,103,103,103,750.413736899849,,,,,,,750.4138132999651,750.4306393000297,2.0163711002096534,756.2853676001541,756.2853788002394,756.3020064998418,756.3020064998418,757.3874726002105,"['1', '3', '1']","[0.35986649990081787, 0.71140499971807]","[0.16800920013338327, 0.1764100999571383]",1,3,1,716,001,2024-10-01_15h10.07.162,Trial_mult,2023.2.1,59.82632409840569,2024-10-01 15h10.32.916240 -0400,
105,block3_trial25_attendright_leadmasker.wav,0,104,104,104,757.402991999872,,,,,,,757.4030586001463,757.4196211001836,2.0163374999538064,763.258040400222,763.2580538000911,763.2744658999145,763.2744658999145,764.260107900016,"['1', '1', '1']","[0.29858870012685657, 0.6516857999376953]","[0.1286630998365581, 0.12692710012197495]",1,1,1,716,001,2024-10-01_15h10.07.162,Trial_mult,2023.2.1,59.82632409840569,2024-10-01 15h10.32.916240 -0400,
106,block3_trial26_attendright_leadtarget.wav,0,105,105,105,764.2746764002368,,,,,,,764.2747439001687,764.2918336000293,2.015946500003338,770.1306751002558,770.1306866998784,770.1465230998583,770.1465230998583,771.4652454000898,"['1', '1', '1']","[0.25149230007082224, 0.7063815002329648]","[0.13586260005831718, 0.15987769979983568]",1,1,1,716,001,2024-10-01_15h10.07.162,Trial_mult,2023.2.1,59.82632409840569,2024-10-01 15h10.32.916240 -0400,
107,block3_trial27_attendleft_leadtarget.wav,0,106,106,106,771.4807816999964,,,,,,,771.4808559999801,771.4975835001096,2.016736800316721,777.3356321002357,777.3356441999786,777.3520932998508,777.3520932998508,778.5378132001497,"['1', '2', '2']","[0.29335139971226454, 0.7174058998934925]","[0.1679318998940289, 0.14361590007320046]",1,2,2,716,001,2024-10-01_15h10.07.162,Trial_mult,2023.2.1,59.82632409840569,2024-10-01 15h10.32.916240 -0400,
108,block3_trial28_attendleft_leadmasker.wav,0,107,107,107,778.5534014999866,,,,,,,778.5534763000906,778.5695234001614,2.0162220001220703,784.4246763000265,784.4246902000159,784.440980500076,784.440980500076,786.3772801002488,"['1', '3', '1']","[0.5963249998167157, 1.5732804001308978]","[0.15319620026275516, 0.15988959977403283]",1,3,1,716,001,2024-10-01_15h10.07.162,Trial_mult,2023.2.1,59.82632409840569,2024-10-01 15h10.32.916240 -0400,
109,block3_trial29_attendleft_leadtarget.wav,0,108,108,108,786.392465100158,,,,,,,786.3925295001827,786.4089736999013,2.016884599812329,792.2311768000945,792.231188100297,792.2476332001388,792.2476332001388,793.6999156000093,"['2', '3', '1']","[0.3504611998796463, 1.0140781998634338]","[0.21494039986282587, 0.2005098001100123]",2,3,1,716,001,2024-10-01_15h10.07.162,Trial_mult,2023.2.1,59.82632409840569,2024-10-01 15h10.32.916240 -0400,
110,block3_trial30_attendright_leadtarget.wav,0,109,109,109,793.7150925002061,,,,,,,793.7151664001867,793.7319927001372,2.016650900244713,799.5707312999293,799.570743100252,799.5870010000654,799.5870010000654,800.7890766002238,"['2', '3', '1']","[0.3625471000559628, 0.7863222998566926]","[0.18357439991086721, 0.16116850031539798]",2,3,1,716,001,2024-10-01_15h10.07.162,Trial_mult,2023.2.1,59.82632409840569,2024-10-01 15h10.32.916240 -0400,
111,block3_trial31_attendleft_leadmasker.wav,0,110,110,110,800.80392570002,,,,,,,800.8039919999428,800.8209402998909,2.01651499979198,806.6760416002944,806.6760547002777,806.6925194999203,806.6925194999203,808.1111564999446,"['3', '2', '3']","[0.5846209996379912, 1.0247216997668147]","[0.16800100030377507, 0.16902079991996288]",3,2,3,716,001,2024-10-01_15h10.07.162,Trial_mult,2023.2.1,59.82632409840569,2024-10-01 15h10.32.916240 -0400,
112,block3_trial32_attendleft_leadtarget.wav,0,111,111,111,808.1270690001547,,,,,,,808.1271478999406,808.1432779002935,2.016841100063175,813.9654178000055,813.9654300999828,813.9820836000144,813.9820836000144,815.3005762998946,"['2', '1', '2']","[0.5679373000748456, 0.935045599937439]","[0.15930869989097118, 0.167947500012815]",2,1,2,716,001,2024-10-01_15h10.07.162,Trial_mult,2023.2.1,59.82632409840569,2024-10-01 15h10.32.916240 -0400,
113,block3_trial33_attendleft_leadtarget.wav,0,112,112,112,815.3155809002928,,,,,,,815.3156385999173,815.3322352999821,2.0168376001529396,821.1707770000212,821.1707890001126,821.1880554999225,821.1880554999225,822.7065158002079,"['3', '3', '1']","[0.7447429001331329, 1.1295067998580635]","[0.1522889998741448, 0.19157910021021962]",3,3,1,716,001,2024-10-01_15h10.07.162,Trial_mult,2023.2.1,59.82632409840569,2024-10-01 15h10.32.916240 -0400,
114,block3_trial34_attendright_leadtarget.wav,0,113,113,113,822.7216473002918,,,,,,,822.721730499994,822.738325400278,2.0169901000335813,828.5935479002073,828.5935589000583,828.6104617998935,828.6104617998935,830.0128045999445,"['3', '1', '1']","[0.6278756000101566, 1.0113670001737773]","[0.15982289984822273, 0.1189798996783793]",3,1,1,716,001,2024-10-01_15h10.07.162,Trial_mult,2023.2.1,59.82632409840569,2024-10-01 15h10.32.916240 -0400,
115,block3_trial35_attendleft_leadmasker.wav,0,114,114,114,830.0279178000055,,,,,,,830.0279930001125,830.044145999942,2.0158412996679544,835.8825770001858,835.8825882999226,835.8991509000771,835.8991509000771,837.3519144998863,"['1', '1', '3']","[0.659461900126189, 1.042898700106889]","[0.12673179991543293, 0.150785599835217]",1,1,3,716,001,2024-10-01_15h10.07.162,Trial_mult,2023.2.1,59.82632409840569,2024-10-01 15h10.32.916240 -0400,
116,block3_trial36_attendleft_leadmasker.wav,0,115,115,115,837.366778400261,,,,,,,837.3668515002355,837.3837024001405,2.0160479000769556,843.2222648998722,843.2222760999575,843.2391857998446,843.2391857998446,844.757136200089,"['3', '3', '3']","[0.6791737000457942, 1.1024131001904607]","[0.1586456000804901, 0.16748999990522861]",3,3,3,716,001,2024-10-01_15h10.07.162,Trial_mult,2023.2.1,59.82632409840569,2024-10-01 15h10.32.916240 -0400,
117,block3_trial37_attendright_leadtarget.wav,0,116,116,116,844.7726321001537,,,,,,,844.7727072001435,844.78940720018,2.01664280006662,850.6115649999119,850.6115761999972,850.6282807001844,850.6282807001844,851.9134002998471,"['2', '2', '2']","[0.48853980004787445, 0.9367597000673413]","[0.16955289989709854, 0.19980929978191853]",2,2,2,716,001,2024-10-01_15h10.07.162,Trial_mult,2023.2.1,59.82632409840569,2024-10-01 15h10.32.916240 -0400,
118,block3_trial38_attendleft_leadtarget.wav,0,117,117,117,851.9287739000283,,,,,,,851.9288484998979,851.9452484999783,2.016496399883181,857.8004785999656,857.8004902000539,857.8166070999578,857.8166070999578,858.7855390999466,"['1', '3', '2']","[0.27682270016521215, 0.6456741001456976]","[0.15961659979075193, 0.18314519990235567]",1,3,2,716,001,2024-10-01_15h10.07.162,Trial_mult,2023.2.1,59.82632409840569,2024-10-01 15h10.32.916240 -0400,
119,block3_trial39_attendleft_leadmasker.wav,0,118,118,118,858.8005661000498,,,,,,,858.8006409001537,858.817476300057,2.0163209000602365,864.6727080000564,864.6727284002118,864.6891207001172,864.6891207001172,865.9079390000552,"['1', '2', '3']","[0.37259670021012425, 0.8036134000867605]","[0.1607379000633955, 0.14452339988201857]",1,2,3,716,001,2024-10-01_15h10.07.162,Trial_mult,2023.2.1,59.82632409840569,2024-10-01 15h10.32.916240 -0400,
120,block3_trial40_attendleft_leadmasker.wav,0,119,119,119,865.9231723998673,,,,,,,865.9232479999773,865.9395942999981,2.016417100094259,871.7776378998533,871.777649700176,871.7946748002432,871.7946748002432,872.9135646000504,"['1', '2', '2']","[0.32221110025420785, 0.747630599886179]","[0.13599330000579357, 0.1268360000103712]",1,2,2,716,001,2024-10-01_15h10.07.162,Trial_mult,2023.2.1,59.82632409840569,2024-10-01 15h10.32.916240 -0400,
121,block4_trial1_attendright_leadmasker.wav,0,120,120,120,872.9286193000153,,,,,,,891.5105678001419,891.5272313999012,2.01807799981907,897.3650428000838,897.365053600166,897.3819957999513,897.3819957999513,898.4005459998734,"['1', '1', '1']","[0.38331500021740794, 0.7111784000881016]","[0.15152079984545708, 0.12927629984915257]",1,1,1,716,001,2024-10-01_15h10.07.162,Trial_mult,2023.2.1,59.82632409840569,2024-10-01 15h10.32.916240 -0400,
122,block4_trial2_attendleft_leadmasker.wav,0,121,121,121,898.4157930999063,,,,,,,898.4158688001335,898.4323340998963,2.0163512998260558,904.2874401998706,904.2874520998448,904.3036326998845,904.3036326998845,905.823830800131,"['1', '3', '2']","[0.7893225997686386, 1.190566400066018]","[0.1598530001938343, 0.14308049995452166]",1,3,2,716,001,2024-10-01_15h10.07.162,Trial_mult,2023.2.1,59.82632409840569,2024-10-01 15h10.32.916240 -0400,
123,block4_trial3_attendright_leadtarget.wav,0,122,122,122,905.8387851999141,,,,,,,905.8388612000272,905.8552223001607,2.0157344001345336,911.6769526000135,911.6769635998644,911.693941900041,911.693941900041,913.0790667999536,"['1', '3', '1']","[0.6551705999299884, 1.023439500015229]","[0.1047903997823596, 0.14508299995213747]",1,3,1,716,001,2024-10-01_15h10.07.162,Trial_mult,2023.2.1,59.82632409840569,2024-10-01 15h10.32.916240 -0400,
124,block4_trial4_attendright_leadmasker.wav,0,123,123,123,913.0943589000963,,,,,,,913.0944338999689,913.1108055002987,2.01653190003708,918.9665681999177,918.966580899898,918.9829031000845,918.9829031000845,920.0675474000163,"['2', '1', '2']","[0.415145100094378, 0.7435539998114109]","[0.12742289993911982, 0.14397810027003288]",2,1,2,716,001,2024-10-01_15h10.07.162,Trial_mult,2023.2.1,59.82632409840569,2024-10-01 15h10.32.916240 -0400,
125,block4_trial5_attendright_leadmasker.wav,0,124,124,124,920.0836052000523,,,,,,,920.0836744001135,920.0999894002452,2.017091699875891,925.9387862002477,925.9387976001017,925.9551969002932,925.9551969002932,927.2567453002557,"['3', '3', '2']","[0.6418943000026047, 1.0264348001219332]","[0.1931095002219081, 0.20049369987100363]",3,3,2,716,001,2024-10-01_15h10.07.162,Trial_mult,2023.2.1,59.82632409840569,2024-10-01 15h10.32.916240 -0400,
126,block4_trial6_attendleft_leadmasker.wav,0,125,125,125,927.272558500059,,,,,,,927.2726369001903,927.2890289002098,2.017204999923706,933.127190799918,933.1272024000064,933.1438869000413,933.1438869000413,934.0794660001993,"['1', '1', '3']","[0.2933837999589741, 0.6054096999578178]","[0.14495999971404672, 0.16744219977408648]",1,1,3,716,001,2024-10-01_15h10.07.162,Trial_mult,2023.2.1,59.82632409840569,2024-10-01 15h10.32.916240 -0400,
127,block4_trial7_attendleft_leadtarget.wav,0,126,126,126,934.0946177998558,,,,,,,934.0946929999627,934.1113892998546,2.016089499928057,939.9497261000797,939.9497368000448,939.9657451999374,939.9657451999374,941.3012148998678,"['3', '2', '2']","[0.35947149991989136, 0.7593168998137116]","[0.1678963997401297, 0.19198800018057227]",3,2,2,716,001,2024-10-01_15h10.07.162,Trial_mult,2023.2.1,59.82632409840569,2024-10-01 15h10.32.916240 -0400,
128,block4_trial8_attendright_leadtarget.wav,0,127,127,127,941.3168313000351,,,,,,,941.3169054002501,941.333495200146,2.016884599812329,947.1557677001692,947.1557789002545,947.1725995000452,947.1725995000452,948.1405539000407,"['2', '2', '3']","[0.27225900022313, 0.6253585000522435]","[0.1601996999233961, 0.16834160033613443]",2,2,3,716,001,2024-10-01_15h10.07.162,Trial_mult,2023.2.1,59.82632409840569,2024-10-01 15h10.32.916240 -0400,
129,block4_trial9_attendright_leadmasker.wav,0,128,128,128,948.1556259999052,,,,,,,948.1557018002495,948.1723616998643,2.016789000015706,954.0277252001688,954.0277360999025,954.0442997999489,954.0442997999489,955.1958786998875,"['2', '1', '1']","[0.3059857999905944, 0.6814602999947965]","[0.16771670011803508, 0.16760289994999766]",2,1,1,716,001,2024-10-01_15h10.07.162,Trial_mult,2023.2.1,59.82632409840569,2024-10-01 15h10.32.916240 -0400,
130,block4_trial10_attendright_leadtarget.wav,0,129,129,129,955.2113736001775,,,,,,,955.2114472999237,955.2279687998816,2.0166067997924984,961.0827858000994,961.0827965000644,961.0994235998951,961.0994235998951,962.1013958998956,"['3', '2', '3']","[0.11411859979853034, 0.6423569996841252]","[0.23962899995967746, 0.1911424002610147]",3,2,3,716,001,2024-10-01_15h10.07.162,Trial_mult,2023.2.1,59.82632409840569,2024-10-01 15h10.32.916240 -0400,
131,block4_trial11_attendright_leadmasker.wav,0,130,130,130,962.117002400104,,,,,,,962.1171283000149,962.1337657002732,2.0167284002527595,967.95554370014,967.9555564001203,967.9718889002688,967.9718889002688,969.7240007999353,"['3', '1', '2']","[0.7301964000798762, 1.3700856999494135]","[0.1844697999767959, 0.15900770016014576]",3,1,2,716,001,2024-10-01_15h10.07.162,Trial_mult,2023.2.1,59.82632409840569,2024-10-01 15h10.32.916240 -0400,
132,block4_trial12_attendleft_leadmasker.wav,0,131,131,131,969.7394518000074,,,,,,,969.7395029999316,969.756895000115,2.016810799948871,975.5784672000445,975.578478100244,975.5954776001163,975.5954776001163,976.9467633999884,"['1', '3', '1']","[0.6492448002099991, 0.9934390000998974]","[0.1852786997333169, 0.19276849972084165]",1,3,1,716,001,2024-10-01_15h10.07.162,Trial_mult,2023.2.1,59.82632409840569,2024-10-01 15h10.32.916240 -0400,
133,block4_trial13_attendleft_leadmasker.wav,0,132,132,132,976.9623614000157,,,,,,,976.9624390001409,976.9791484000161,2.0171042000874877,982.8168806000613,982.8168922001496,982.8337415000424,982.8337415000424,983.9856401002035,"['3', '3', '3']","[0.38716609962284565, 0.7479611998423934]","[0.17752430029213428, 0.1689165998250246]",3,3,3,716,001,2024-10-01_15h10.07.162,Trial_mult,2023.2.1,59.82632409840569,2024-10-01 15h10.32.916240 -0400,
134,block4_trial14_attendleft_leadmasker.wav,0,133,133,133,984.0015509999357,,,,,,,984.0016339998692,984.0183538999408,2.0170554001815617,989.8730043000542,989.8730159001425,989.8895979998633,989.8895979998633,990.958253600169,"['3', '3', '1']","[0.29249690007418394, 0.6761694001033902]","[0.16739289974793792, 0.17605889961123466]",3,3,1,716,001,2024-10-01_15h10.07.162,Trial_mult,2023.2.1,59.82632409840569,2024-10-01 15h10.32.916240 -0400,
135,block4_trial15_attendleft_leadtarget.wav,0,134,134,134,990.97356030019,,,,,,,990.9736351002939,990.9901987998746,2.0167692000977695,996.8455707998946,996.8455834002234,996.8618120001629,996.8618120001629,997.980802600272,"['1', '2', '1']","[0.44004750018939376, 0.8166986000724137]","[0.15165669983252883, 0.15194430015981197]",1,2,1,716,001,2024-10-01_15h10.07.162,Trial_mult,2023.2.1,59.82632409840569,2024-10-01 15h10.32.916240 -0400,
136,block4_trial16_attendright_leadtarget.wav,0,135,135,135,997.9956223000772,,,,,,,997.9956968999468,998.0123234000057,2.01629940001294,1003.8504277002066,1003.8504388001747,1003.8670191001147,1003.8670191001147,1004.952514000237,"['3', '3', '3']","[0.34601949993520975, 0.7057161000557244]","[0.17649540025740862, 0.1603884999640286]",3,3,3,716,001,2024-10-01_15h10.07.162,Trial_mult,2023.2.1,59.82632409840569,2024-10-01 15h10.32.916240 -0400,
137,block4_trial17_attendleft_leadmasker.wav,0,136,136,136,1004.9678294002078,,,,,,,1004.9679045001976,1004.9845985001884,2.017067200038582,1010.8232303000987,1010.8232416003011,1010.8397886999883,1010.8397886999883,1012.0253254002891,"['3', '2', '3']","[0.39828210044652224, 0.7979667000472546]","[0.15180049976333976, 0.15967300022020936]",3,2,3,716,001,2024-10-01_15h10.07.162,Trial_mult,2023.2.1,59.82632409840569,2024-10-01 15h10.32.916240 -0400,
138,block4_trial18_attendright_leadmasker.wav,0,137,137,137,1012.0404594000429,,,,,,,1012.0405329000205,1012.0573662002571,2.0160578000359237,1017.8789245998487,1017.8789352001622,1017.8959747999907,1017.8959747999907,1019.86487150006,"['2', '2', '3']","[0.5571783999912441, 1.173632100224495]","[0.17589469999074936, 0.2158840000629425]",2,2,3,716,001,2024-10-01_15h10.07.162,Trial_mult,2023.2.1,59.82632409840569,2024-10-01 15h10.32.916240 -0400,
139,block4_trial19_attendright_leadtarget.wav,0,138,138,138,1019.8799552000128,,,,,,,1019.8800288001075,1019.8966546002775,2.016139700077474,1025.7347331000492,1025.7347443001345,1025.7514419001527,1025.7514419001527,1026.9042846001685,"['3', '3', '3']","[0.4616920999251306, 0.8066786001436412]","[0.15982120018452406, 0.15223739994689822]",3,3,3,716,001,2024-10-01_15h10.07.162,Trial_mult,2023.2.1,59.82632409840569,2024-10-01 15h10.32.916240 -0400,
140,block4_trial20_attendleft_leadtarget.wav,0,139,139,139,1026.9193440000527,,,,,,,1026.919422800187,1026.9358777999878,2.0159019003622234,1032.7909475001507,1032.790959100239,1032.8077503000386,1032.8077503000386,1033.9423854001798,"['2', '3', '1']","[0.41434739995747805, 0.7814821000210941]","[0.1685730000026524, 0.17547710007056594]",2,3,1,716,001,2024-10-01_15h10.07.162,Trial_mult,2023.2.1,59.82632409840569,2024-10-01 15h10.32.916240 -0400,
141,block4_trial21_attendleft_leadtarget.wav,0,140,140,140,1033.9583275001496,,,,,,,1033.9584025000222,1033.9745646999218,2.016948999837041,1039.796584900003,1039.7965965000913,1039.8127101999708,1039.8127101999708,1040.7652902002446,"['2', '3', '2']","[0.3929201001301408, 0.6491836002096534]","[0.16795630007982254, 0.17505900003015995]",2,3,2,716,001,2024-10-01_15h10.07.162,Trial_mult,2023.2.1,59.82632409840569,2024-10-01 15h10.32.916240 -0400,
142,block4_trial22_attendright_leadtarget.wav,0,141,141,141,1040.7802494000643,,,,,,,1040.7803179998882,1040.7969188001007,2.0163437998853624,1046.6183063001372,1046.618317599874,1046.6345966998488,1046.6345966998488,1047.6702775000595,"['1', '2', '3']","[0.3394601000472903, 0.6829325002618134]","[0.14299890026450157, 0.18471820000559092]",1,2,3,716,001,2024-10-01_15h10.07.162,Trial_mult,2023.2.1,59.82632409840569,2024-10-01 15h10.32.916240 -0400,
143,block4_trial23_attendleft_leadmasker.wav,0,142,142,142,1047.6855454002507,,,,,,,1047.6856145998463,1047.7019805000164,2.0166689003817737,1053.5402493001893,1053.5402607000433,1053.5569132999517,1053.5569132999517,1055.0764935002662,"['2', '3', '1']","[0.641660800203681, 1.113275000359863]","[0.1744870999827981, 0.1756909997202456]",2,3,1,716,001,2024-10-01_15h10.07.162,Trial_mult,2023.2.1,59.82632409840569,2024-10-01 15h10.32.916240 -0400,
144,block4_trial24_attendright_leadmasker.wav,0,143,143,143,1055.0914794001728,,,,,,,1055.0915533001535,1055.1081803999841,2.0163189000450075,1060.9300581002608,1060.930069600232,1060.9466071999632,1060.9466071999632,1062.1654806002043,"['3', '2', '2']","[0.4756160001270473, 0.8427459001541138]","[0.17582539981231093, 0.11274460004642606]",3,2,2,716,001,2024-10-01_15h10.07.162,Trial_mult,2023.2.1,59.82632409840569,2024-10-01 15h10.32.916240 -0400,
145,block4_trial25_attendleft_leadtarget.wav,0,144,144,144,1062.1806955002248,,,,,,,1062.1807710002176,1062.1977285998873,2.0166119001805782,1068.0360369998962,1068.0360484998673,1068.0525903999805,1068.0525903999805,1070.3889639000408,"['1', '3', '2']","[1.0493126004002988, 1.6807739003561437]","[0.14378569973632693, 0.14435669966042042]",1,3,2,716,001,2024-10-01_15h10.07.162,Trial_mult,2023.2.1,59.82632409840569,2024-10-01 15h10.32.916240 -0400,
146,block4_trial26_attendright_leadtarget.wav,0,145,145,145,1070.4037740998901,,,,,,,1070.4038510001265,1070.4206202002242,2.01581329992041,1076.2589346002787,1076.2589453998953,1076.2761232000776,1076.2761232000776,1077.9443811001256,"['1', '3', '3']","[0.842482800129801, 1.26603509997949]","[0.11983479978516698, 0.16753550013527274]",1,3,3,716,001,2024-10-01_15h10.07.162,Trial_mult,2023.2.1,59.82632409840569,2024-10-01 15h10.32.916240 -0400,
147,block4_trial27_attendright_leadmasker.wav,0,146,146,146,1077.9597621001303,,,,,,,1077.9598290002905,1077.9769589002244,2.016631899867207,1083.8316303002648,1083.8316432000138,1083.847742300015,1083.847742300015,1085.8179333000444,"['2', '1', '1']","[0.5506282998248935, 0.9895302997902036]","[0.16638900013640523, 0.208884600084275]",2,1,1,716,001,2024-10-01_15h10.07.162,Trial_mult,2023.2.1,59.82632409840569,2024-10-01 15h10.32.916240 -0400,
148,block4_trial28_attendleft_leadtarget.wav,0,147,147,147,1085.8325999998488,,,,,,,1085.832666600123,1085.8493945002556,2.016287900041789,1091.672143700067,1091.672154800035,1091.687963400036,1091.687963400036,1093.3568565002643,"['2', '1', '3']","[0.5011187000200152, 1.2301198998466134]","[0.2161204000003636, 0.1750038000755012]",2,1,3,716,001,2024-10-01_15h10.07.162,Trial_mult,2023.2.1,59.82632409840569,2024-10-01 15h10.32.916240 -0400,
149,block4_trial29_attendright_leadmasker.wav,0,148,148,148,1093.37240270013,,,,,,,1093.3724767998792,1093.3891011001542,2.0166420000605285,1099.2445896002464,1099.2446011002176,1099.2610202999786,1099.2610202999786,1101.0634921998717,"['3', '1', '1']","[0.9771214001812041, 1.3919914001598954]","[0.15931000001728535, 0.16027179965749383]",3,1,1,716,001,2024-10-01_15h10.07.162,Trial_mult,2023.2.1,59.82632409840569,2024-10-01 15h10.32.916240 -0400,
150,block4_trial30_attendright_leadtarget.wav,0,149,149,149,1101.078207500279,,,,,,,1101.0782746998593,1101.0948443002999,2.0166161004453897,1106.9504137998447,1106.950424700044,1106.9672902999446,1106.9672902999446,1108.3024682002142,"['3', '3', '2']","[0.29436639975756407, 0.7897986997850239]","[0.15921480022370815, 0.17692480003461242]",3,3,2,716,001,2024-10-01_15h10.07.162,Trial_mult,2023.2.1,59.82632409840569,2024-10-01 15h10.32.916240 -0400,
151,block4_trial31_attendleft_leadtarget.wav,0,150,150,150,1108.3173173000105,,,,,,,1108.3173849000596,1108.3341276999563,2.016458200290799,1114.1892503001727,1114.1892613000236,1114.2054257001728,1114.2054257001728,1115.4252925002947,"['1', '1', '1']","[0.3929012999869883, 0.8083462999202311]","[0.17479929979890585, 0.17599759995937347]",1,1,1,716,001,2024-10-01_15h10.07.162,Trial_mult,2023.2.1,59.82632409840569,2024-10-01 15h10.32.916240 -0400,
152,block4_trial32_attendright_leadtarget.wav,0,151,151,151,1115.4401417998597,,,,,,,1115.4402177999727,1115.4565161000937,2.0166171002201736,1121.2956618000753,1121.2956731999293,1121.3114777002484,1121.3114777002484,1122.7141082999296,"['2', '3', '3']","[0.47005539992824197, 0.9174063997343183]","[0.1844967999495566, 0.2094548000022769]",2,3,3,716,001,2024-10-01_15h10.07.162,Trial_mult,2023.2.1,59.82632409840569,2024-10-01 15h10.32.916240 -0400,
153,block4_trial33_attendright_leadmasker.wav,0,152,152,152,1122.7293185000308,,,,,,,1122.7293986002915,1122.7456975001842,2.016232100315392,1128.5840354003012,1128.5840457002632,1128.6007471000776,1128.6007471000776,1130.0868907999247,"['3', '2', '1']","[0.589627199806273, 1.0523469997569919]","[0.18306489987298846, 0.18424220010638237]",3,2,1,716,001,2024-10-01_15h10.07.162,Trial_mult,2023.2.1,59.82632409840569,2024-10-01 15h10.32.916240 -0400,
154,block4_trial34_attendleft_leadtarget.wav,0,153,153,153,1130.1021513002925,,,,,,,1130.1022344999947,1130.1184093998745,2.0162429995834827,1135.9731943998486,1135.9732055002823,1135.9901409000158,1135.9901409000158,1137.058648600243,"['3', '2', '3']","[0.3745284997858107, 0.7432927000336349]","[0.16879130015149713, 0.17585620004683733]",3,2,3,716,001,2024-10-01_15h10.07.162,Trial_mult,2023.2.1,59.82632409840569,2024-10-01 15h10.32.916240 -0400,
155,block4_trial35_attendleft_leadmasker.wav,0,154,154,154,1137.074109100271,,,,,,,1137.0741832000203,1137.0909915002994,2.016789199784398,1142.9459357000887,1142.9459482999519,1142.9627045001835,1142.9627045001835,1144.6152538000606,"['2', '2', '3']","[0.7228390998207033, 1.1485599000006914]","[0.15919220028445125, 0.19810409983620048]",2,2,3,716,001,2024-10-01_15h10.07.162,Trial_mult,2023.2.1,59.82632409840569,2024-10-01 15h10.32.916240 -0400,
156,block4_trial36_attendright_leadtarget.wav,0,155,155,155,1144.6302845999599,,,,,,,1144.6303564002737,1144.6466791001149,2.016328699886799,1150.4688661000691,1150.4688778002746,1150.4852275000885,1150.4852275000885,1151.8373147002421,"['3', '3', '2']","[0.35147880017757416, 0.8087041000835598]","[0.24046229990199208, 0.240140900015831]",3,3,2,716,001,2024-10-01_15h10.07.162,Trial_mult,2023.2.1,59.82632409840569,2024-10-01 15h10.32.916240 -0400,
157,block4_trial37_attendleft_leadtarget.wav,0,156,156,156,1151.8524424000643,,,,,,,1151.8525185002945,1151.869230700191,2.0163182001560926,1157.7080481001176,1157.7080597998574,1157.7242503999732,1157.7242503999732,1159.160154900048,"['1', '1', '3']","[0.6325910999439657, 1.024542300030589]","[0.144713600166142, 0.16794849978759885]",1,1,3,716,001,2024-10-01_15h10.07.162,Trial_mult,2023.2.1,59.82632409840569,2024-10-01 15h10.32.916240 -0400,
158,block4_trial38_attendleft_leadmasker.wav,0,157,157,157,1159.1749774999917,,,,,,,1159.1750461999327,1159.1918811001815,2.0163306002505124,1165.0472484002821,1165.0472602001391,1165.0635437001474,1165.0635437001474,1166.4493956002407,"['1', '3', '1']","[0.5101230996660888, 0.9491440998390317]","[0.1599700003862381, 0.16951450007036328]",1,3,1,716,001,2024-10-01_15h10.07.162,Trial_mult,2023.2.1,59.82632409840569,2024-10-01 15h10.32.916240 -0400,
159,block4_trial39_attendleft_leadmasker.wav,0,158,158,158,1166.4641400002874,,,,,,,1166.4642139999196,1166.4811472999863,2.0216180002316833,1172.3359111999162,1172.3359233001247,1172.3524107001722,1172.3524107001722,1173.8222270999104,"['3', '1', '3']","[0.5568491998128593, 1.029912400059402]","[0.16877170000225306, 0.11151129985228181]",3,1,3,716,001,2024-10-01_15h10.07.162,Trial_mult,2023.2.1,59.82632409840569,2024-10-01 15h10.32.916240 -0400,
160,block4_trial40_attendleft_leadtarget.wav,0,159,159,159,1173.8369634998962,,,,,,,1173.8370441002771,1173.8541454002261,2.015849799849093,1179.675343700219,1179.675355100073,1179.6926440000534,1179.6926440000534,1181.0276093999855,"['2', '1', '3']","[0.5290226000361145, 0.9056230997666717]","[0.1679193996824324, 0.14349070005118847]",2,1,3,716,001,2024-10-01_15h10.07.162,Trial_mult,2023.2.1,59.82632409840569,2024-10-01 15h10.32.916240 -0400,
161,block5_trial1_attendleft_leadtarget.wav,0,160,160,160,1181.0428802999668,,,,,,,1198.6072472999804,1198.6232369001955,2.0178977996110916,1204.4789105001837,1204.4789217999205,1204.4954479001462,1204.4954479001462,1206.5482091000304,"['3', '2', '2']","[1.262715300079435, 1.6468198001384735]","[0.13487129984423518, 0.14255009964108467]",3,2,2,716,001,2024-10-01_15h10.07.162,Trial_mult,2023.2.1,59.82632409840569,2024-10-01 15h10.32.916240 -0400,
162,block5_trial2_attendleft_leadmasker.wav,0,161,161,161,1206.5632859999314,,,,,,,1206.5633609001525,1206.580189900007,2.0159811000339687,1212.4183411998674,1212.418353300076,1212.4352589999326,1212.4352589999326,1213.6035871002823,"['2', '3', '2']","[0.40991250006482005, 0.810415799729526]","[0.13721759989857674, 0.12092450028285384]",2,3,2,716,001,2024-10-01_15h10.07.162,Trial_mult,2023.2.1,59.82632409840569,2024-10-01 15h10.32.916240 -0400,
163,block5_trial3_attendleft_leadtarget.wav,0,162,162,162,1213.6190991001204,,,,,,,1213.6191770001315,1213.6356688002124,2.0168352001346648,1219.474293900188,1219.4743054001592,1219.4913511001505,1219.4913511001505,1220.5259289001115,"['3', '3', '3']","[0.3213825998827815, 0.698155699763447]","[0.15338500030338764, 0.13675589999184012]",3,3,3,716,001,2024-10-01_15h10.07.162,Trial_mult,2023.2.1,59.82632409840569,2024-10-01 15h10.32.916240 -0400,
164,block5_trial4_attendleft_leadtarget.wav,0,163,163,163,1220.5414006002247,,,,,,,1220.5414789998904,1220.557572599966,2.0164168998599052,1226.3965938999318,1226.3966061002575,1226.4131602998823,1226.4131602998823,1227.6986945001408,"['2', '1', '3']","[0.35291980020701885, 0.8404968003742397]","[0.1758626000955701, 0.1760645997710526]",2,1,3,716,001,2024-10-01_15h10.07.162,Trial_mult,2023.2.1,59.82632409840569,2024-10-01 15h10.32.916240 -0400,
165,block5_trial5_attendleft_leadmasker.wav,0,164,164,164,1227.7132804999128,,,,,,,1227.7133550001308,1227.7305474001914,2.0165506997145712,1233.585453900043,1233.5854651001282,1233.6014803000726,1233.6014803000726,1235.0375550999306,"['2', '1', '2']","[0.6121662999503314, 1.1076907003298402]","[0.15968520008027554, 0.14407469984143972]",2,1,2,716,001,2024-10-01_15h10.07.162,Trial_mult,2023.2.1,59.82632409840569,2024-10-01 15h10.32.916240 -0400,
166,block5_trial6_attendleft_leadtarget.wav,0,165,165,165,1235.052499299869,,,,,,,1235.0525724999607,1235.0692382999696,2.0165490000508726,1240.9248767001554,1240.9248877000064,1240.9405684000812,1240.9405684000812,1242.643662800081,"['3', '1', '1']","[0.9607043000869453, 1.336319100111723]","[0.13769500004127622, 0.15217259991914034]",3,1,1,716,001,2024-10-01_15h10.07.162,Trial_mult,2023.2.1,59.82632409840569,2024-10-01 15h10.32.916240 -0400,
167,block5_trial7_attendright_leadmasker.wav,0,166,166,166,1242.6593162999488,,,,,,,1242.6593998000026,1242.6752051999792,2.0164335002191365,1248.4973257998936,1248.4973368002102,1248.51417999994,1248.51417999994,1249.865784900263,"['1', '3', '2']","[0.6519757998175919, 0.9951802999712527]","[0.1590363997966051, 0.16102869994938374]",1,3,2,716,001,2024-10-01_15h10.07.162,Trial_mult,2023.2.1,59.82632409840569,2024-10-01 15h10.32.916240 -0400,
168,block5_trial8_attendright_leadtarget.wav,0,167,167,167,1249.8811608999968,,,,,,,1249.8812295002863,1249.8979386002757,2.0168543001636863,1255.7360960002989,1255.7361071999185,1255.7528734998778,1255.7528734998778,1256.8381026000716,"['2', '3', '3']","[0.3240906000137329, 0.7245552004314959]","[0.16933450009673834, 0.1994528998620808]",2,3,3,716,001,2024-10-01_15h10.07.162,Trial_mult,2023.2.1,59.82632409840569,2024-10-01 15h10.32.916240 -0400,
169,block5_trial9_attendleft_leadmasker.wav,0,168,168,168,1256.853876600042,,,,,,,1256.8539542001672,1256.8702815999277,2.01673290040344,1262.7087054001167,1262.7087161000818,1262.7249692999758,1262.7249692999758,1264.0274608000182,"['1', '2', '2']","[0.33732799999415874, 0.8969340003095567]","[0.12766950018703938, 0.12036830000579357]",1,2,2,716,001,2024-10-01_15h10.07.162,Trial_mult,2023.2.1,59.82632409840569,2024-10-01 15h10.32.916240 -0400,
170,block5_trial10_attendleft_leadtarget.wav,0,169,169,169,1264.0424910001457,,,,,,,1264.0425582998432,1264.0594453001395,2.016497700009495,1269.9145142002963,1269.9145263000391,1269.931054700166,1269.931054700166,1272.1345187998377,"['3', '1', '2']","[1.491764800157398, 1.842879300005734]","[0.18249749997630715, 0.15239060018211603]",3,1,2,716,001,2024-10-01_15h10.07.162,Trial_mult,2023.2.1,59.82632409840569,2024-10-01 15h10.32.916240 -0400,
171,block5_trial11_attendleft_leadtarget.wav,0,170,170,170,1272.1493766000494,,,,,,,1272.149450399913,1272.1656575999223,2.015690099913627,1277.987777700182,1277.987789500039,1278.0047260001302,1278.0047260001302,1279.3226620000787,"['2', '1', '1']","[0.4399459999985993, 0.9210542999207973]","[0.12108729965984821, 0.10422739991918206]",2,1,1,716,001,2024-10-01_15h10.07.162,Trial_mult,2023.2.1,59.82632409840569,2024-10-01 15h10.32.916240 -0400,
172,block5_trial12_attendleft_leadmasker.wav,0,171,171,171,1279.3382911998779,,,,,,,1279.3383659999818,1279.354738399852,2.0165670001879334,1285.1933686002158,1285.1933796000667,1285.2103067999706,1285.2103067999706,1286.4621071000583,"['2', '3', '3']","[0.4918149998411536, 0.899297199677676]","[0.14248340018093586, 0.1430234001018107]",2,3,3,716,001,2024-10-01_15h10.07.162,Trial_mult,2023.2.1,59.82632409840569,2024-10-01 15h10.32.916240 -0400,
173,block5_trial13_attendleft_leadmasker.wav,0,172,172,172,1286.4771376000717,,,,,,,1286.4772117002867,1286.4942521001212,2.01632840000093,1292.3317742999643,1292.3317848001607,1292.3490844001062,1292.3490844001062,1293.2508911001496,"['1', '3', '2']","[0.27424339996650815, 0.5515096997842193]","[0.16595879988744855, 0.16111180000007153]",1,3,2,716,001,2024-10-01_15h10.07.162,Trial_mult,2023.2.1,59.82632409840569,2024-10-01 15h10.32.916240 -0400,
174,block5_trial14_attendleft_leadmasker.wav,0,173,173,173,1293.2659185999073,,,,,,,1293.2659916998819,1293.2829963001423,2.016285799909383,1299.121221399866,1299.1212356998585,1299.1380767002702,1299.1380767002702,1300.3401259002276,"['3', '1', '1']","[0.42757249996066093, 0.8189786998555064]","[0.16735879983752966, 0.15255420003086329]",3,1,1,716,001,2024-10-01_15h10.07.162,Trial_mult,2023.2.1,59.82632409840569,2024-10-01 15h10.32.916240 -0400,
175,block5_trial15_attendright_leadmasker.wav,0,174,174,174,1300.3553905999288,,,,,,,1300.3554636999033,1300.3721205000766,2.0163389001972973,1306.2275380999781,1306.2275497000664,1306.244153500069,1306.244153500069,1307.7954382998869,"['3', '1', '3']","[0.7940541999414563, 1.2010411997325718]","[0.14413650007918477, 0.1368800001218915]",3,1,3,716,001,2024-10-01_15h10.07.162,Trial_mult,2023.2.1,59.82632409840569,2024-10-01 15h10.32.916240 -0400,
176,block5_trial16_attendright_leadtarget.wav,0,175,175,175,1307.8109595002607,,,,,,,1307.8110318998806,1307.8275843001902,2.0173565996810794,1313.6498499000445,1313.6498611001298,1313.6666711000726,1313.6666711000726,1315.418409400154,"['2', '3', '2']","[0.7620994998142123, 1.34708569990471]","[0.15180400013923645, 0.16826630011200905]",2,3,2,716,001,2024-10-01_15h10.07.162,Trial_mult,2023.2.1,59.82632409840569,2024-10-01 15h10.32.916240 -0400,
177,block5_trial17_attendleft_leadmasker.wav,0,176,176,176,1315.4342379998416,,,,,,,1315.4343135999516,1315.4503998002037,2.0170729998499155,1321.2727936999872,1321.2728046001866,1321.2888561999425,1321.2888561999425,1323.3749625002965,"['2', '1', '2']","[0.7241737996228039, 1.1330142999067903]","[0.15196310030296445, 0.17527589993551373]",2,1,2,716,001,2024-10-01_15h10.07.162,Trial_mult,2023.2.1,59.82632409840569,2024-10-01 15h10.32.916240 -0400,
178,block5_trial18_attendright_leadmasker.wav,0,177,177,177,1323.3902149000205,,,,,,,1323.3903179001063,1323.4067971999757,2.016319100279361,1329.2619998999871,1329.2620120001957,1329.2786816000007,1329.2786816000007,1330.3640312002972,"['1', '2', '3']","[0.36600250005722046, 0.7184903002344072]","[0.16079939994961023, 0.18449469981715083]",1,2,3,716,001,2024-10-01_15h10.07.162,Trial_mult,2023.2.1,59.82632409840569,2024-10-01 15h10.32.916240 -0400,
179,block5_trial19_attendright_leadtarget.wav,0,178,178,178,1330.3795354999602,,,,,,,1330.3796109003015,1330.3957254998386,2.0167923998087645,1336.217988899909,1336.21800039988,1336.234094500076,1336.234094500076,1337.6362983002327,"['1', '2', '3']","[0.39662319980561733, 1.0045964000746608]","[0.1744937002658844, 0.15920699993148446]",1,2,3,716,001,2024-10-01_15h10.07.162,Trial_mult,2023.2.1,59.82632409840569,2024-10-01 15h10.32.916240 -0400,
180,block5_trial20_attendright_leadtarget.wav,0,179,179,179,1337.6514987000264,,,,,,,1337.6515660001896,1337.6687084999867,2.0171458004042506,1343.5070340000093,1343.5070450999774,1343.5237604998983,1343.5237604998983,1344.958880000282,"['1', '3', '3']","[0.47345889965072274, 0.9128312999382615]","[0.14467790024355054, 0.14422790007665753]",1,3,3,716,001,2024-10-01_15h10.07.162,Trial_mult,2023.2.1,59.82632409840569,2024-10-01 15h10.32.916240 -0400,
181,block5_trial21_attendleft_leadtarget.wav,0,180,180,180,1344.9745661001652,,,,,,,1344.9746413999237,1344.9908059998415,2.0164473997429013,1350.8454681001604,1350.8454792001285,1350.8621912002563,1350.8621912002563,1352.131747700274,"['3', '3', '1']","[0.3596566002815962, 0.7909580999985337]","[0.1600051000714302, 0.15972919994965196]",3,3,1,716,001,2024-10-01_15h10.07.162,Trial_mult,2023.2.1,59.82632409840569,2024-10-01 15h10.32.916240 -0400,
182,block5_trial22_attendright_leadtarget.wav,0,181,181,181,1352.1468008002266,,,,,,,1352.1468781000003,1352.1634519998915,2.016226500272751,1358.0016653998755,1358.001676300075,1358.018673799932,1358.018673799932,1359.5206778999418,"['2', '3', '3']","[0.6502534002065659, 1.099450500216335]","[0.16049360018223524, 0.16731159994378686]",2,3,3,716,001,2024-10-01_15h10.07.162,Trial_mult,2023.2.1,59.82632409840569,2024-10-01 15h10.32.916240 -0400,
183,block5_trial23_attendleft_leadmasker.wav,0,182,182,182,1359.5358567000367,,,,,,,1359.5359304999001,1359.5526609001681,2.016263599973172,1365.3906793999486,1365.3906900999136,1365.407677799929,1365.407677799929,1366.609239100013,"['2', '3', '3']","[0.38166880002245307, 0.742508000228554]","[0.20842610020190477, 0.19031829992309213]",2,3,3,716,001,2024-10-01_15h10.07.162,Trial_mult,2023.2.1,59.82632409840569,2024-10-01 15h10.32.916240 -0400,
184,block5_trial24_attendleft_leadtarget.wav,0,183,183,183,1366.624741199892,,,,,,,1366.6248003002256,1366.6417431998998,2.017262800130993,1372.4975161999464,1372.4975275001489,1372.5133036002517,1372.5133036002517,1374.348964100238,"['2', '2', '3']","[1.1395924999378622, 1.4593453998677433]","[0.13742650020867586, 0.13677600026130676]",2,2,3,716,001,2024-10-01_15h10.07.162,Trial_mult,2023.2.1,59.82632409840569,2024-10-01 15h10.32.916240 -0400,
185,block5_trial25_attendright_leadmasker.wav,0,184,184,184,1374.3641324001364,,,,,,,1374.3641865998507,1374.3809544001706,2.0168777997605503,1380.2031876002438,1380.2031984999776,1380.2198067000136,1380.2198067000136,1381.6555218999274,"['3', '3', '3']","[0.7847323999740183, 1.129645800217986]","[0.16084600007161498, 0.14331620000302792]",3,3,3,716,001,2024-10-01_15h10.07.162,Trial_mult,2023.2.1,59.82632409840569,2024-10-01 15h10.32.916240 -0400,
186,block5_trial26_attendleft_leadmasker.wav,0,185,185,185,1381.6707319999114,,,,,,,1381.6708070002496,1381.6873711999506,2.0162761001847684,1387.5420964001678,1387.5421072999015,1387.5583677999675,1387.5583677999675,1389.5113985999487,"['2', '1', '3']","[1.3034584997221828, 1.6321497997269034]","[0.18343630013987422, 0.15938360011205077]",2,1,3,716,001,2024-10-01_15h10.07.162,Trial_mult,2023.2.1,59.82632409840569,2024-10-01 15h10.32.916240 -0400,
187,block5_trial27_attendright_leadmasker.wav,0,186,186,186,1389.5266026002355,,,,,,,1389.5266708000563,1389.543090800289,2.0161593998782337,1395.3817898998968,1395.3818057999015,1395.397888300009,1395.397888300009,1399.0696939001791,"['3', '1', '1']","[1.2953743999823928, 1.6154574998654425]","[0.1517598000355065, 0.21627540001645684]",3,1,1,716,001,2024-10-01_15h10.07.162,Trial_mult,2023.2.1,59.82632409840569,2024-10-01 15h10.32.916240 -0400,
188,block5_trial28_attendright_leadmasker.wav,0,187,187,187,1399.0843607001007,,,,,,,1399.0844288999215,1399.1009525000118,2.0160723999142647,1404.9560719002038,1404.9560831999406,1404.97299499996,1404.97299499996,1406.9419796001166,"['3', '1', '2']","[1.1915885000489652, 1.5282041998580098]","[0.1773343998938799, 0.1606970001012087]",3,1,2,716,001,2024-10-01_15h10.07.162,Trial_mult,2023.2.1,59.82632409840569,2024-10-01 15h10.32.916240 -0400,
189,block5_trial29_attendright_leadmasker.wav,0,188,188,188,1406.9571274002083,,,,,,,1406.95718270028,1406.9743722998537,2.016706299968064,1412.7959532998502,1412.7959656999446,1412.8120666998439,1412.8120666998439,1413.8473693002015,"['2', '3', '3']","[0.3455154998227954, 0.6808404000476003]","[0.16839000023901463, 0.17574739968404174]",2,3,3,716,001,2024-10-01_15h10.07.162,Trial_mult,2023.2.1,59.82632409840569,2024-10-01 15h10.32.916240 -0400,
190,block5_trial30_attendright_leadmasker.wav,0,189,189,189,1413.862675699871,,,,,,,1413.8627343000844,1413.8794019999914,2.016500700265169,1419.7184850000776,1419.7184963999316,1419.7347031002864,1419.7347031002864,1420.769700200297,"['2', '3', '2']","[0.35047199996188283, 0.6709034000523388]","[0.15211010025814176, 0.17633710009977221]",2,3,2,716,001,2024-10-01_15h10.07.162,Trial_mult,2023.2.1,59.82632409840569,2024-10-01 15h10.32.916240 -0400,
191,block5_trial31_attendleft_leadtarget.wav,0,190,190,190,1420.7851702002808,,,,,,,1420.7852445002645,1420.8021308002062,2.0164769999682903,1426.6402437998913,1426.640254800208,1426.6572553999722,1426.6572553999722,1428.7931353999302,"['1', '1', '3']","[0.11729610012844205, 0.7974827000871301]","[0.19139959989115596, 0.19123979983851314]",1,1,3,716,001,2024-10-01_15h10.07.162,Trial_mult,2023.2.1,59.82632409840569,2024-10-01 15h10.32.916240 -0400,
192,block5_trial32_attendright_leadtarget.wav,0,191,191,191,1428.8082230999134,,,,,,,1428.8082893001847,1428.8247259999625,2.0162531002424657,1434.6799225001596,1434.6799333998933,1434.696418600157,1434.696418600157,1436.031877100002,"['3', '2', '3']","[0.4043764998205006, 0.8531983997672796]","[0.17727650003507733, 0.14467039983719587]",3,2,3,716,001,2024-10-01_15h10.07.162,Trial_mult,2023.2.1,59.82632409840569,2024-10-01 15h10.32.916240 -0400,
193,block5_trial33_attendright_leadmasker.wav,0,192,192,192,1436.0476202000864,,,,,,,1436.0476871002465,1436.0638685999438,2.0169428000226617,1441.9196971999481,1441.9197080000304,1441.9359471001662,1441.9359471001662,1443.1713279001415,"['1', '2', '2']","[0.40559739992022514, 0.8527835998684168]","[0.13591379998251796, 0.12986239977180958]",1,2,2,716,001,2024-10-01_15h10.07.162,Trial_mult,2023.2.1,59.82632409840569,2024-10-01 15h10.32.916240 -0400,
194,block5_trial34_attendright_leadtarget.wav,0,193,193,193,1443.1865848000161,,,,,,,1443.186660700012,1443.2033802000806,2.0168282999657094,1449.024813900236,1449.024824900087,1449.0416162000038,1449.0416162000038,1450.2768254000694,"['2', '2', '3']","[0.33206050004810095, 0.7558635999448597]","[0.14323040004819632, 0.1604785001836717]",2,2,3,716,001,2024-10-01_15h10.07.162,Trial_mult,2023.2.1,59.82632409840569,2024-10-01 15h10.32.916240 -0400,
195,block5_trial35_attendleft_leadtarget.wav,0,194,194,194,1450.2922121002339,,,,,,,1450.2922867001034,1450.3087754999287,2.0169961997307837,1456.1305788001046,1456.1305900998414,1456.1475152000785,1456.1475152000785,1458.950546900276,"['1', '1', '1']","[0.866818799637258, 1.274096999783069]","[0.15948270028457046, 0.15963160013779998]",1,1,1,716,001,2024-10-01_15h10.07.162,Trial_mult,2023.2.1,59.82632409840569,2024-10-01 15h10.32.916240 -0400,
196,block5_trial36_attendleft_leadmasker.wav,0,195,195,195,1458.9655339000747,,,,,,,1458.9656006000005,1458.9822176001035,2.0167661998420954,1464.8042171001434,1464.8042293000035,1464.820370099973,1464.820370099973,1466.0396243999712,"['1', '1', '1']","[0.45681370003148913, 0.8731281999498606]","[0.20009229984134436, 0.20028690015897155]",1,1,1,716,001,2024-10-01_15h10.07.162,Trial_mult,2023.2.1,59.82632409840569,2024-10-01 15h10.32.916240 -0400,
197,block5_trial37_attendright_leadtarget.wav,0,196,196,196,1466.0548107000068,,,,,,,1466.0548852002248,1466.0715987002477,2.0165486996993423,1471.9095900999382,1471.9096015002578,1471.9260722002946,1471.9260722002946,1474.1630335999653,"['3', '2', '2']","[1.3033726997673512, 1.7995106996968389]","[0.15123230032622814, 0.16740520019084215]",3,2,2,716,001,2024-10-01_15h10.07.162,Trial_mult,2023.2.1,59.82632409840569,2024-10-01 15h10.32.916240 -0400,
198,block5_trial38_attendright_leadtarget.wav,0,197,197,197,1474.1778330998495,,,,,,,1474.1779073001817,1474.1948859002441,2.0160885001532733,1480.0505355000496,1480.050547200255,1480.0664478000253,1480.0664478000253,1481.4181830999441,"['1', '2', '3']","[0.3631367003545165, 0.8351903003640473]","[0.1832702998071909, 0.20788499992340803]",1,2,3,716,001,2024-10-01_15h10.07.162,Trial_mult,2023.2.1,59.82632409840569,2024-10-01 15h10.32.916240 -0400,
199,block5_trial39_attendright_leadmasker.wav,0,198,198,198,1481.4341307999566,,,,,,,1481.4342077998444,1481.4502644999884,2.0168217997998,1487.2888922998682,1487.2889033001848,1487.3060850999318,1487.3060850999318,1488.874506200198,"['1', '2', '3']","[0.7872318001464009, 1.1235989998094738]","[0.1683881999924779, 0.20878039998933673]",1,2,3,716,001,2024-10-01_15h10.07.162,Trial_mult,2023.2.1,59.82632409840569,2024-10-01 15h10.32.916240 -0400,
200,block5_trial40_attendright_leadtarget.wav,0,199,199,199,1488.8896576999687,,,,,,,1488.8897253000177,1488.9068988002837,2.01658200006932,1494.7617068998516,1494.7617214000784,1494.7783923000097,1494.7783923000097,1496.5309653002769,"['3', '1', '2']","[0.9623118997551501, 1.3950871997512877]","[0.1124964002519846, 0.12874040007591248]",3,1,2,716,001,2024-10-01_15h10.07.162,Trial_mult,2023.2.1,59.82632409840569,2024-10-01 15h10.32.916240 -0400,
201,block6_trial1_attendright_leadmasker.wav,0,200,200,200,1496.5462201000191,,,,,,,1558.7123417998664,1558.7293233000673,2.019181599840522,1564.5675150002353,1564.5675253001973,1564.5843100999482,1564.5843100999482,1566.4871490001678,"['2', '2', '3']","[0.8537296997383237, 1.3256905996240675]","[0.11097220005467534, 0.1272217002697289]",2,2,3,716,001,2024-10-01_15h10.07.162,Trial_mult,2023.2.1,59.82632409840569,2024-10-01 15h10.32.916240 -0400,
202,block6_trial2_attendright_leadmasker.wav,0,201,201,201,1566.5021676998585,,,,,,,1566.5022406000644,1566.5186846000142,2.0165152000263333,1572.3736841999926,1572.373695100192,1572.3902425998822,1572.3902425998822,1573.6259016999975,"['1', '1', '2']","[0.40808380022644997, 0.8151720003224909]","[0.12677629990503192, 0.12762309983372688]",1,1,2,716,001,2024-10-01_15h10.07.162,Trial_mult,2023.2.1,59.82632409840569,2024-10-01 15h10.32.916240 -0400,
203,block6_trial3_attendright_leadmasker.wav,0,202,202,202,1573.640950600151,,,,,,,1573.6410155999474,1573.6575219999067,2.0165797998197377,1579.5128311002627,1579.5128440000117,1579.529253100045,1579.529253100045,1580.9485929002985,"['2', '3', '3']","[0.5792268998920918, 0.9881323999725282]","[0.12102459976449609, 0.16011559963226318]",2,3,3,716,001,2024-10-01_15h10.07.162,Trial_mult,2023.2.1,59.82632409840569,2024-10-01 15h10.32.916240 -0400,
204,block6_trial4_attendright_leadmasker.wav,0,203,203,203,1580.963571399916,,,,,,,1580.963639399968,1580.9806841001846,2.0167375998571515,1586.8019834998995,1586.801994500216,1586.818485100288,1586.818485100288,1589.2554084998555,"['2', '3', '3']","[0.6748092998750508, 0.9543277998454869]","[0.11195520032197237, 0.12033040029928088]",2,3,3,716,001,2024-10-01_15h10.07.162,Trial_mult,2023.2.1,59.82632409840569,2024-10-01 15h10.32.916240 -0400,
205,block6_trial5_attendleft_leadmasker.wav,0,204,204,204,1589.27065890003,,,,,,,1589.2707332000136,1589.2873229999095,2.0165976001881063,1595.125782399904,1595.125796200242,1595.1422323998995,1595.1422323998995,1596.6610205001198,"['3', '3', '1']","[0.5040088999085128, 1.0226330999284983]","[0.2631169999949634, 0.2570992996916175]",3,3,1,716,001,2024-10-01_15h10.07.162,Trial_mult,2023.2.1,59.82632409840569,2024-10-01 15h10.32.916240 -0400,
206,block6_trial6_attendleft_leadtarget.wav,0,205,205,205,1596.6763470000587,,,,,,,1596.676427599974,1596.692659900058,2.0163704003207386,1602.5483782999218,1602.54838990001,1602.5649104998447,1602.5649104998447,1603.7330064000562,"['2', '3', '2']","[0.3279654998332262, 0.8003242998383939]","[0.2397185997106135, 0.1923674000427127]",2,3,2,716,001,2024-10-01_15h10.07.162,Trial_mult,2023.2.1,59.82632409840569,2024-10-01 15h10.32.916240 -0400,
207,block6_trial7_attendright_leadmasker.wav,0,206,206,206,1603.748535499908,,,,,,,1603.748611799907,1603.7654873998836,2.016689899843186,1609.6031853002496,1609.6031964998692,1609.619915800169,1609.619915800169,1610.9060626998544,"['3', '2', '2']","[0.45742740016430616, 0.8987396997399628]","[0.21664629969745874, 0.1978084002621472]",3,2,2,716,001,2024-10-01_15h10.07.162,Trial_mult,2023.2.1,59.82632409840569,2024-10-01 15h10.32.916240 -0400,
208,block6_trial8_attendleft_leadmasker.wav,0,207,207,207,1610.9208618002012,,,,,,,1610.9209369998425,1610.9376676999964,2.0160848996602,1616.759864000138,1616.759875500109,1616.7761868000962,1616.7761868000962,1617.8948617000133,"['2', '2', '3']","[0.34895099978893995, 0.7412562998943031]","[0.1770827998407185, 0.23237370001152158]",2,2,3,716,001,2024-10-01_15h10.07.162,Trial_mult,2023.2.1,59.82632409840569,2024-10-01 15h10.32.916240 -0400,
209,block6_trial9_attendright_leadtarget.wav,0,208,208,208,1617.9104281002656,,,,,,,1617.9105277000926,1617.926774499938,2.01636749971658,1623.7648685001768,1623.7648793999106,1623.7810817998834,1623.7810817998834,1625.3841550000943,"['2', '2', '2']","[0.6808643997646868, 1.128133200109005]","[0.18459370033815503, 0.18375979969277978]",2,2,2,716,001,2024-10-01_15h10.07.162,Trial_mult,2023.2.1,59.82632409840569,2024-10-01 15h10.32.916240 -0400,
210,block6_trial10_attendright_leadtarget.wav,0,209,209,209,1625.3994443002157,,,,,,,1625.3995109000243,1625.4160895003006,2.017009099945426,1631.2544933999889,1631.2545051001944,1631.271460399963,1631.271460399963,1632.4391105999239,"['2', '2', '2']","[0.437922399956733, 0.8137147999368608]","[0.1433568997308612, 0.15134739968925714]",2,2,2,716,001,2024-10-01_15h10.07.162,Trial_mult,2023.2.1,59.82632409840569,2024-10-01 15h10.32.916240 -0400,
211,block6_trial11_attendright_leadmasker.wav,0,210,210,210,1632.4551547002047,,,,,,,1632.4552282001823,1632.4719560001977,2.017193299718201,1638.310310299974,1638.3103211000562,1638.3274551001377,1638.3274551001377,1639.4624375002459,"['1', '2', '1']","[0.3577878000214696, 0.7422261997126043]","[0.15349899977445602, 0.1838829000480473]",1,2,1,716,001,2024-10-01_15h10.07.162,Trial_mult,2023.2.1,59.82632409840569,2024-10-01 15h10.32.916240 -0400,
212,block6_trial12_attendleft_leadmasker.wav,0,211,211,211,1639.4773583998904,,,,,,,1639.4774277000688,1639.494452800136,2.016573800239712,1645.3159472001716,1645.3159580999054,1645.3318521999754,1645.3318521999754,1646.8684461000375,"['2', '2', '1']","[0.4975793003104627, 1.0574686001054943]","[0.1841469998471439, 0.18453360022976995]",2,2,1,716,001,2024-10-01_15h10.07.162,Trial_mult,2023.2.1,59.82632409840569,2024-10-01 15h10.32.916240 -0400,
213,block6_trial13_attendleft_leadtarget.wav,0,212,212,212,1646.8834732002579,,,,,,,1646.883543400094,1646.8999358001165,2.016460600309074,1652.7550591002218,1652.7550719999708,1652.7720043002628,1652.7720043002628,1654.157308100257,"['1', '1', '1']","[0.5934187001548707, 0.9850461999885738]","[0.15279109962284565, 0.19238340016454458]",1,1,1,716,001,2024-10-01_15h10.07.162,Trial_mult,2023.2.1,59.82632409840569,2024-10-01 15h10.32.916240 -0400,
214,block6_trial14_attendright_leadtarget.wav,0,213,213,213,1654.1725043002516,,,,,,,1654.1725779999979,1654.1889704000205,2.016159000340849,1660.0446109999903,1660.0446231001988,1660.0609253998846,1660.0609253998846,1661.3795602000318,"['1', '1', '3']","[0.6001837002113461, 0.9843781003728509]","[0.16866619978100061, 0.17692129965871572]",1,1,3,716,001,2024-10-01_15h10.07.162,Trial_mult,2023.2.1,59.82632409840569,2024-10-01 15h10.32.916240 -0400,
215,block6_trial15_attendleft_leadtarget.wav,0,214,214,214,1661.3951111002825,,,,,,,1661.3951846999116,1661.4120311001316,2.0167390001006424,1667.2332516000606,1667.233262900263,1667.2496604998596,1667.2496604998596,1669.385735400021,"['3', '2', '2']","[1.283523999620229, 1.635714199859649]","[0.1756329000927508, 0.1991459997370839]",3,2,2,716,001,2024-10-01_15h10.07.162,Trial_mult,2023.2.1,59.82632409840569,2024-10-01 15h10.32.916240 -0400,
216,block6_trial16_attendright_leadtarget.wav,0,215,215,215,1669.401358900126,,,,,,,1669.4014326999895,1669.4184190998785,2.016684299800545,1675.2733613001183,1675.2733728000894,1675.2899215002544,1675.2899215002544,1676.8090503001586,"['2', '1', '2']","[0.5636080000549555, 0.9477790002711117]","[0.15276989992707968, 0.1517289998009801]",2,1,2,716,001,2024-10-01_15h10.07.162,Trial_mult,2023.2.1,59.82632409840569,2024-10-01 15h10.32.916240 -0400,
217,block6_trial17_attendright_leadmasker.wav,0,216,216,216,1676.8241258999333,,,,,,,1676.8242043000646,1676.8408800000325,2.0163111998699605,1682.6624142001383,1682.6624250002205,1682.6789446002804,1682.6789446002804,1683.9479898000136,"['3', '1', '3']","[0.4230245999060571, 0.8230156996287405]","[0.17480430006980896, 0.2150003002025187]",3,1,3,716,001,2024-10-01_15h10.07.162,Trial_mult,2023.2.1,59.82632409840569,2024-10-01 15h10.32.916240 -0400,
218,block6_trial18_attendleft_leadtarget.wav,0,217,217,217,1683.963427499868,,,,,,,1683.963502000086,1683.9795757001266,2.0163588002324104,1689.8013335000724,1689.8013448999263,1689.817449499853,1689.817449499853,1693.9545690002851,['2'],[3.5958493002690375],[0.13539599999785423],2,NA,NA,716,001,2024-10-01_15h10.07.162,Trial_mult,2023.2.1,59.82632409840569,2024-10-01 15h10.32.916240 -0400,
219,block6_trial19_attendleft_leadmasker.wav,0,218,218,218,1693.9712402001023,,,,,,,1693.9713131999597,1693.9876896999776,2.0235828002914786,1699.8433127999306,1699.843323300127,1699.8593915998936,1699.8593915998936,1700.2779071000405,"['3', '2', '3']",[],[0.13539599999785423],3,2,3,716,001,2024-10-01_15h10.07.162,Trial_mult,2023.2.1,59.82632409840569,2024-10-01 15h10.32.916240 -0400,
220,block6_trial20_attendleft_leadtarget.wav,0,219,219,219,1700.292850700207,,,,,,,1700.2929329001345,1700.3096199999563,2.0160432998090982,1706.1476579001173,1706.1476690000854,1706.1641882001422,1706.1641882001422,1707.5496692000888,"['2', '1', '3']","[0.48152359994128346, 0.9685221998952329]","[0.1359803001396358, 0.13008989999070764]",2,1,3,716,001,2024-10-01_15h10.07.162,Trial_mult,2023.2.1,59.82632409840569,2024-10-01 15h10.32.916240 -0400,
221,block6_trial21_attendleft_leadmasker.wav,0,220,220,220,1707.5650837002322,,,,,,,1707.5651501002721,1707.582067700103,2.017259399872273,1713.4042528001592,1713.404264099896,1713.4207438998856,1713.4207438998856,1714.5559789002873,"['2', '1', '1']","[0.36841689981520176, 0.7125858999788761]","[0.16026780009269714, 0.1925697000697255]",2,1,1,716,001,2024-10-01_15h10.07.162,Trial_mult,2023.2.1,59.82632409840569,2024-10-01 15h10.32.916240 -0400,
222,block6_trial22_attendleft_leadmasker.wav,0,221,221,221,1714.5710529000498,,,,,,,1714.571121700108,1714.5877558998764,2.0160578000359237,1720.4093730002642,1720.4093845002353,1720.425906199962,1720.425906199962,1721.528106200043,"['2', '1', '1']","[0.40433620009571314, 0.7469354001805186]","[0.16682660020887852, 0.2000187998637557]",2,1,1,716,001,2024-10-01_15h10.07.162,Trial_mult,2023.2.1,59.82632409840569,2024-10-01 15h10.32.916240 -0400,
223,block6_trial23_attendright_leadmasker.wav,0,222,222,222,1721.5429847999476,,,,,,,1721.5430527999997,1721.5599521999247,2.01655020006001,1727.382717099972,1727.3827308001928,1727.3985365000553,1727.3985365000553,1728.4670686000027,"['1', '3', '3']","[0.3918989999219775, 0.7111014002002776]","[0.13475320022553205, 0.1587584000080824]",1,3,3,716,001,2024-10-01_15h10.07.162,Trial_mult,2023.2.1,59.82632409840569,2024-10-01 15h10.32.916240 -0400,
