Index,audio,trials.thisRepN,trials.thisTrialN,trials.thisN,trials.thisIndex,thisRow.t,notes,Instruction.started,Instructions.started,resp_start.started,Instruction.stopped,resp_start.keys,resp_start.rt,resp_start.duration,trial.started,cross.started,audio.started,trial.stopped,Responses.started,respp.started,key_resp.started,Responses.stopped,key_resp.keys,key_resp.rt,key_resp.duration,response1,response2,response3,participant,session,date,expName,psychopyVersion,frameRate,expStart,
,,,,,,,,0.017208799999934854,0.05090410000002521,0.05090410000002521,1.851903300000231,space,1.7871509000001424,None,,,,,,,,,,,,,,,717,001,2024-10-02_14h41.03.579,Trial_mult,2023.2.1,59.87177859895493,2024-10-02 14h41.15.486119 -0400,
1,block1_trial1_attendright_leadmasker.wav,0,0,0,0,1.8844850000000406,,,,,,,,,1.8845461999999316,1.9012124000000767,2.0009288000001106,7.722870300000068,7.722881700000016,7.739785900000243,7.739785900000243,8.808619800000088,"['2', '3', '1']","[0.5311148000000685, 0.7624946000000818]","[0.1667154000001574, 0.1276679000002332]",2,3,1,717,001,2024-10-02_14h41.03.579,Trial_mult,2023.2.1,59.87177859895493,2024-10-02 14h41.15.486119 -0400,
2,block1_trial2_attendright_leadmasker.wav,0,1,1,1,8.82346570000027,,,,,,,,,8.823525100000097,8.840494600000056,2.014711199999965,14.69611470000018,14.69612589999997,14.712309999999889,14.712309999999889,15.746961600000304,"['2', '2', '2']","[0.5738521000002947, 0.7892466000002969]","[0.11140549999981886, 0.13608539999995628]",2,2,2,717,001,2024-10-02_14h41.03.579,Trial_mult,2023.2.1,59.87177859895493,2024-10-02 14h41.15.486119 -0400,
3,block1_trial3_attendright_leadtarget.wav,0,2,2,2,15.762952099999893,,,,,,,,,15.763025700000071,15.779537899999923,2.0172333999998955,21.61782170000015,21.617831800000204,21.63425150000012,21.63425150000012,23.419720700000198,"['1', '2', '1']","[1.068851800000175, 1.3319495999999162]","[0.15918909999982134, 0.12152430000014647]",1,2,1,717,001,2024-10-02_14h41.03.579,Trial_mult,2023.2.1,59.87177859895493,2024-10-02 14h41.15.486119 -0400,
4,block1_trial4_attendright_leadmasker.wav,0,3,3,3,23.435212800000045,,,,,,,,,23.435282899999947,23.451936899999964,2.0169135999999526,29.27354830000013,29.273559100000057,29.290210300000126,29.290210300000126,30.592615600000045,"['1', '3', '2']","[0.7960803000000851, 1.0527468999998746]","[0.13614120000011098, 0.12704470000016954]",1,3,2,717,001,2024-10-02_14h41.03.579,Trial_mult,2023.2.1,59.87177859895493,2024-10-02 14h41.15.486119 -0400,
5,block1_trial5_attendright_leadmasker.wav,0,4,4,4,30.60744569999997,,,,,,,,,30.60750330000019,30.624242700000195,2.016528599999674,36.4799723000001,36.47998340000004,36.49649499999987,36.49649499999987,37.98129620000009,"['3', '3', '1']","[0.6130239000003712, 0.837831400000141]","[0.10513779999973849, 0.11968740000020262]",3,3,1,717,001,2024-10-02_14h41.03.579,Trial_mult,2023.2.1,59.87177859895493,2024-10-02 14h41.15.486119 -0400,
6,block1_trial6_attendleft_leadtarget.wav,0,5,5,5,37.996875700000146,,,,,,,,,37.996943399999964,38.01361840000027,2.0171454000001177,43.85205320000023,43.852063799999996,43.8683860000001,43.8683860000001,45.704235300000164,"['3', '1', '3']","[1.0262280000001738, 1.49137490000021]","[0.13523510000004535, 0.16595939999979237]",3,1,3,717,001,2024-10-02_14h41.03.579,Trial_mult,2023.2.1,59.87177859895493,2024-10-02 14h41.15.486119 -0400,
7,block1_trial7_attendleft_leadtarget.wav,0,6,6,6,45.72010480000017,,,,,,,,,45.720179400000234,45.7366691000002,2.017012100000102,51.574878100000205,51.57488920000014,51.591536800000085,51.591536800000085,52.74393140000029,"['1', '1', '2']","[0.7577333999997791, 0.9580200000000332]","[0.09709490000022925, 0.11316369999985909]",1,1,2,717,001,2024-10-02_14h41.03.579,Trial_mult,2023.2.1,59.87177859895493,2024-10-02 14h41.15.486119 -0400,
8,block1_trial8_attendleft_leadmasker.wav,0,7,7,7,52.75860199999988,,,,,,,,,52.75865620000013,52.775398400000086,2.0160777000000962,58.63115770000013,58.63116979999995,58.6476418000002,58.6476418000002,60.14903460000005,"['2', '2', '1']","[0.8786595000001398, 1.199740400000337]","[0.13618570000016916, 0.1501138999997238]",2,2,1,717,001,2024-10-02_14h41.03.579,Trial_mult,2023.2.1,59.87177859895493,2024-10-02 14h41.15.486119 -0400,
9,block1_trial9_attendleft_leadmasker.wav,0,8,8,8,60.16524550000031,,,,,,,,,60.16531990000021,60.181452700000136,2.0171433000000434,66.00355059999993,66.00356140000031,66.01943510000001,66.01943510000001,67.17145070000015,"['1', '1', '2']","[0.611066700000265, 0.8419938000001821]","[0.1269345999999132, 0.16069429999970453]",1,1,2,717,001,2024-10-02_14h41.03.579,Trial_mult,2023.2.1,59.87177859895493,2024-10-02 14h41.15.486119 -0400,
10,block1_trial10_attendright_leadtarget.wav,0,9,9,9,67.18715330000032,,,,,,,,,67.18723910000017,67.20392179999999,2.0171433000000434,73.07537450000018,73.07538680000016,73.0921085,73.0921085,74.41052480000008,"['2', '1', '3']","[0.7216930999998112, 1.0584225999996306]","[0.1446700999999848, 0.1590886000003593]",2,1,3,717,001,2024-10-02_14h41.03.579,Trial_mult,2023.2.1,59.87177859895493,2024-10-02 14h41.15.486119 -0400,
11,block1_trial11_attendright_leadmasker.wav,0,10,10,10,74.42626280000013,,,,,,,,,74.42633620000015,74.4430668,2.017084000000068,80.26490169999988,80.2649123000001,80.28181010000026,80.28181010000026,81.98338860000013,"['2', '3', '1']","[0.908716600000389, 1.4464114000002155]","[0.1358087999997224, 0.1498394999998709]",2,3,1,717,001,2024-10-02_14h41.03.579,Trial_mult,2023.2.1,59.87177859895493,2024-10-02 14h41.15.486119 -0400,
12,block1_trial12_attendleft_leadtarget.wav,0,11,11,11,81.99937490000002,,,,,,,,,81.99944880000021,82.01560120000022,2.017175899999984,87.83762090000027,87.83763219999992,87.8544366000001,87.8544366000001,89.58949230000007,"['1', '2', '1']","[0.7597774000000754, 1.2069095000001653]","[0.15119730000014897, 0.1766979999997602]",1,2,1,717,001,2024-10-02_14h41.03.579,Trial_mult,2023.2.1,59.87177859895493,2024-10-02 14h41.15.486119 -0400,
13,block1_trial13_attendright_leadmasker.wav,0,12,12,12,89.60527910000019,,,,,,,,,89.60535340000024,89.6221902000002,2.017250000000331,95.4609989999999,95.46101020000015,95.47734390000005,95.47734390000005,96.94534449999992,"['3', '2', '3']","[0.6813627999999881, 0.9527084999999715]","[0.0872509999999238, 0.15222990000029313]",3,2,3,717,001,2024-10-02_14h41.03.579,Trial_mult,2023.2.1,59.87177859895493,2024-10-02 14h41.15.486119 -0400,
14,block1_trial14_attendright_leadtarget.wav,0,13,13,13,96.96123390000002,,,,,,,,,96.96130679999987,96.97776440000007,2.017473400000199,102.83254710000028,102.83255710000003,102.8489724000001,102.8489724000001,104.6515273,"['3', '1', '2']","[0.9650942000002942, 1.2778536999999233]","[0.15192619999970702, 0.11193170000024111]",3,1,2,717,001,2024-10-02_14h41.03.579,Trial_mult,2023.2.1,59.87177859895493,2024-10-02 14h41.15.486119 -0400,
15,block1_trial15_attendleft_leadmasker.wav,0,14,14,14,104.66772960000026,,,,,,,,,104.66780990000007,104.68368580000015,2.0167952000001605,110.53921149999996,110.53922220000004,110.55544659999987,110.55544659999987,111.94075310000017,"['1', '1', '2']","[0.7065027999997255, 1.1224054999997861]","[0.12066330000016023, 0.13704499999994368]",1,1,2,717,001,2024-10-02_14h41.03.579,Trial_mult,2023.2.1,59.87177859895493,2024-10-02 14h41.15.486119 -0400,
16,block1_trial16_attendleft_leadmasker.wav,0,15,15,15,111.95634449999989,,,,,,,,,111.95641819999992,111.97314730000016,2.0170196999997643,117.82818889999999,117.82819960000006,117.84438490000002,117.84438490000002,119.43010480000021,"['2', '1', '2']","[0.8666204000001017, 1.2257230000000163]","[0.15265920000001643, 0.18520669999998063]",2,1,2,717,001,2024-10-02_14h41.03.579,Trial_mult,2023.2.1,59.87177859895493,2024-10-02 14h41.15.486119 -0400,
17,block1_trial17_attendleft_leadtarget.wav,0,16,16,16,119.44568049999998,,,,,,,,,119.44574980000016,119.4628461000002,2.0170367000000624,125.3178009000003,125.31781140000021,125.33476879999989,125.33476879999989,126.48577150000028,"['3', '3', '1']","[0.695329899999706, 0.8886972999998761]","[0.08745300000009593, 0.1195278000000144]",3,3,1,717,001,2024-10-02_14h41.03.579,Trial_mult,2023.2.1,59.87177859895493,2024-10-02 14h41.15.486119 -0400,
18,block1_trial18_attendleft_leadtarget.wav,0,17,17,17,126.50165310000011,,,,,,,,,126.50172640000028,126.51802720000023,2.017468000000008,132.37372619999996,132.3737374000002,132.38992340000004,132.38992340000004,133.6250143000002,"['2', '2', '1']","[0.6001249000000826, 0.8238342999998167]","[0.08767139999963547, 0.12820779999992737]",2,2,1,717,001,2024-10-02_14h41.03.579,Trial_mult,2023.2.1,59.87177859895493,2024-10-02 14h41.15.486119 -0400,
19,block1_trial19_attendright_leadtarget.wav,0,18,18,18,133.64031049999994,,,,,,,,,133.64038560000017,133.6573467000003,2.017090400000143,139.5623504,139.56236089999993,139.57899780000025,139.57899780000025,140.91402800000014,"['1', '1', '2']","[0.5386978000001363, 0.7790042999999969]","[0.12120270000013988, 0.12812950000034107]",1,1,2,717,001,2024-10-02_14h41.03.579,Trial_mult,2023.2.1,59.87177859895493,2024-10-02 14h41.15.486119 -0400,
20,block1_trial20_attendright_leadtarget.wav,0,19,19,19,140.92986840000003,,,,,,,,,140.92994610000005,140.94659440000032,2.0168539999999666,146.7684922000003,146.7685022999999,146.78530020000017,146.78530020000017,147.8029351,"['2', '2', '3']","[0.508374399999866, 0.7163683999997374]","[0.0886633999998594, 0.11334620000025097]",2,2,3,717,001,2024-10-02_14h41.03.579,Trial_mult,2023.2.1,59.87177859895493,2024-10-02 14h41.15.486119 -0400,
21,block1_trial21_attendright_leadtarget.wav,0,20,20,20,147.8188169,,,,,,,,,147.81889619999993,147.83527820000018,2.017083300000195,153.69059770000013,153.69060769999987,153.7072760000001,153.7072760000001,154.75847169999997,"['2', '3', '1']","[0.466788500000348, 0.7224769000004017]","[0.1521877999998651, 0.0887628999998924]",2,3,1,717,001,2024-10-02_14h41.03.579,Trial_mult,2023.2.1,59.87177859895493,2024-10-02 14h41.15.486119 -0400,
22,block1_trial22_attendright_leadmasker.wav,0,21,21,21,154.77468510000017,,,,,,,,,154.77475940000022,154.7909697,2.0167990999998437,160.64545970000017,160.64546999999993,160.66257730000007,160.66257730000007,162.7649967000002,"['2', '3', '1']","[1.023298000000068, 1.6964929999999185]","[0.12173419999999169, 0.0638159000000087]",2,3,1,717,001,2024-10-02_14h41.03.579,Trial_mult,2023.2.1,59.87177859895493,2024-10-02 14h41.15.486119 -0400,
23,block1_trial23_attendright_leadmasker.wav,0,22,22,22,162.78100270000004,,,,,,,,,162.7810754000002,162.79720120000002,2.016983699999855,168.63603430000012,168.63604450000003,168.6523631,168.6523631,169.77068129999998,"['1', '1', '2']","[0.6418487000000823, 0.8581770999999208]","[0.0812101999999868, 0.07925919999979669]",1,1,2,717,001,2024-10-02_14h41.03.579,Trial_mult,2023.2.1,59.87177859895493,2024-10-02 14h41.15.486119 -0400,
24,block1_trial24_attendright_leadtarget.wav,0,23,23,23,169.78696870000022,,,,,,,,,169.7870396000003,169.8027750000001,2.016982000000098,175.65856440000016,175.65857490000008,175.6748792000003,175.6748792000003,176.42650030000004,"['2', '2', '3']","[0.1962986999997156, 0.43507709999994404]","[0.1105400000001282, 0.1599935999997797]",2,2,3,717,001,2024-10-02_14h41.03.579,Trial_mult,2023.2.1,59.87177859895493,2024-10-02 14h41.15.486119 -0400,
25,block1_trial25_attendright_leadtarget.wav,0,24,24,24,176.44191750000027,,,,,,,,,176.44199070000013,176.45822859999998,2.016496499999903,182.2968192000003,182.2968292999999,182.31413150000026,182.31413150000026,183.58177939999996,"['1', '1', '3']","[0.7958672999998271, 1.0287735000001703]","[0.12754820000009204, 0.12711189999981798]",1,1,3,717,001,2024-10-02_14h41.03.579,Trial_mult,2023.2.1,59.87177859895493,2024-10-02 14h41.15.486119 -0400,
26,block1_trial26_attendleft_leadmasker.wav,0,25,25,25,183.5974980000001,,,,,,,,,183.59757609999997,183.61440690000018,2.016784599999937,189.45268720000013,189.4526980999999,189.46885980000025,189.46885980000025,190.2882442,"['3', '3', '1']","[0.3453552999999374, 0.5529991000003065]","[0.10455160000037722, 0.13579749999962587]",3,3,1,717,001,2024-10-02_14h41.03.579,Trial_mult,2023.2.1,59.87177859895493,2024-10-02 14h41.15.486119 -0400,
27,block1_trial27_attendleft_leadmasker.wav,0,26,26,26,190.30244549999998,,,,,,,,,190.30249730000014,190.31984310000007,2.015971399999671,196.17431429999988,196.1743246000001,196.19123549999995,196.19123549999995,197.44287350000013,"['2', '2', '1']","[0.7109322999999677, 0.918836199999987]","[0.08089930000005552, 0.13606679999975313]",2,2,1,717,001,2024-10-02_14h41.03.579,Trial_mult,2023.2.1,59.87177859895493,2024-10-02 14h41.15.486119 -0400,
28,block1_trial28_attendleft_leadtarget.wav,0,27,27,27,197.45831390000012,,,,,,,,,197.4583892999999,197.47519880000027,2.016934499999934,203.33038990000023,203.3304009000003,203.34735660000024,203.34735660000024,207.4496853999999,"['3', '3']","[1.0583744999998999, 1.6834749999998166]","[0.09598259999984293, 0.15962450000006356]",3,3,NA,717,001,2024-10-02_14h41.03.579,Trial_mult,2023.2.1,59.87177859895493,2024-10-02 14h41.15.486119 -0400,
29,block1_trial29_attendright_leadmasker.wav,0,28,28,28,207.46634700000004,,,,,,,,,207.4664203000002,207.48354240000026,2.0241472999996404,213.32116399999995,213.32117430000017,213.33804520000012,213.33804520000012,214.57328510000025,"['2', '2', '1']","[0.6597486000000572, 0.892417800000203]","[0.12931729999991148, 0.16806420000011713]",2,2,1,717,001,2024-10-02_14h41.03.579,Trial_mult,2023.2.1,59.87177859895493,2024-10-02 14h41.15.486119 -0400,
30,block1_trial30_attendright_leadtarget.wav,0,29,29,29,214.58923390000018,,,,,,,,,214.58930869999995,214.60589570000002,2.016765200000009,220.46027570000024,220.4602861000003,220.4768455000003,220.4768455000003,221.6288698000003,"['1', '2', '1']","[0.5930928999996468, 0.8495982999997977]","[0.11268860000018321, 0.14479650000021138]",1,2,1,717,001,2024-10-02_14h41.03.579,Trial_mult,2023.2.1,59.87177859895493,2024-10-02 14h41.15.486119 -0400,
31,block1_trial31_attendleft_leadtarget.wav,0,30,30,30,221.6446962,,,,,,,,,221.64476980000018,221.66172480000023,2.0170489000001908,227.53324920000023,227.53325910000012,227.54950510000026,227.54950510000026,228.90147530000013,"['1', '3', '1']","[0.7204882999999427, 0.9930048000001079]","[0.1290593000003355, 0.10523310000007768]",1,3,1,717,001,2024-10-02_14h41.03.579,Trial_mult,2023.2.1,59.87177859895493,2024-10-02 14h41.15.486119 -0400,
32,block1_trial32_attendleft_leadtarget.wav,0,31,31,31,228.9170495000003,,,,,,,,,228.91711870000017,228.9338845000002,2.017240700000002,234.7725203,234.77253090000022,234.78886980000016,234.78886980000016,236.0404585000001,"['1', '2', '1']","[0.7531324999999924, 0.9850031000000854]","[0.12153380000017933, 0.14549459999989267]",1,2,1,717,001,2024-10-02_14h41.03.579,Trial_mult,2023.2.1,59.87177859895493,2024-10-02 14h41.15.486119 -0400,
33,block1_trial33_attendleft_leadmasker.wav,0,32,32,32,236.0562100000002,,,,,,,,,236.05628410000008,236.07281250000005,2.0169544000000315,241.92806840000003,241.9280788000001,241.94449970000005,241.94449970000005,243.26383720000013,"['3', '2', '1']","[0.4854664999998022, 0.7333616999999322]","[0.11251279999987673, 0.1297906999998304]",3,2,1,717,001,2024-10-02_14h41.03.579,Trial_mult,2023.2.1,59.87177859895493,2024-10-02 14h41.15.486119 -0400,
34,block1_trial34_attendright_leadtarget.wav,0,33,33,33,243.27845879999995,,,,,,,,,243.2786286999999,243.2952352000002,2.016390499999943,249.1174673999999,249.11747940000032,249.1338426000002,249.1338426000002,250.0354680999999,"['2', '2', '1']","[0.42382240000006277, 0.6639697000000524]","[0.1366954000000078, 0.12988959999984218]",2,2,1,717,001,2024-10-02_14h41.03.579,Trial_mult,2023.2.1,59.87177859895493,2024-10-02 14h41.15.486119 -0400,
35,block1_trial35_attendright_leadmasker.wav,0,34,34,34,250.05107450000014,,,,,,,,,250.0511406999999,250.06735370000024,2.016961700000138,255.90596790000018,255.90597819999994,255.92230199999995,255.92230199999995,257.50855189999993,"['3', '3', '2']","[1.0912992000003214, 1.3324907999999596]","[0.12096959999962564, 0.13516170000002603]",3,3,2,717,001,2024-10-02_14h41.03.579,Trial_mult,2023.2.1,59.87177859895493,2024-10-02 14h41.15.486119 -0400,
36,block1_trial36_attendleft_leadmasker.wav,0,35,35,35,257.5235633000002,,,,,,,,,257.5236414000001,257.54020720000017,2.0164913000003253,263.3787714,263.3787817000002,263.39520949999996,263.39520949999996,264.6304173000003,"['1', '2', '2']","[0.5239783000001808, 1.0112638999999035]","[0.11963070000001608, 0.1291140000002997]",1,2,2,717,001,2024-10-02_14h41.03.579,Trial_mult,2023.2.1,59.87177859895493,2024-10-02 14h41.15.486119 -0400,
37,block1_trial37_attendleft_leadtarget.wav,0,36,36,36,264.6459282999999,,,,,,,,,264.6460199000003,264.6630401000002,2.0171277999997983,270.5343206000002,270.5343312,270.5508920000002,270.5508920000002,271.63630349999994,"['3', '2', '2']","[0.5039053000000422, 0.7591394000000946]","[0.1029684999998608, 0.14397609999969063]",3,2,2,717,001,2024-10-02_14h41.03.579,Trial_mult,2023.2.1,59.87177859895493,2024-10-02 14h41.15.486119 -0400,
38,block1_trial38_attendleft_leadmasker.wav,0,37,37,37,271.65147939999997,,,,,,,,,271.6515521000001,271.66798199999994,2.016327700000147,277.48999090000007,277.4900029999999,277.5066999999999,277.5066999999999,278.7415231,"['3', '3', '2']","[0.5475670000000719, 0.7789883999998892]","[0.1206899999997404, 0.10434010000017224]",3,3,2,717,001,2024-10-02_14h41.03.579,Trial_mult,2023.2.1,59.87177859895493,2024-10-02 14h41.15.486119 -0400,
39,block1_trial39_attendleft_leadtarget.wav,0,38,38,38,278.75733880000007,,,,,,,,,278.7574162000001,278.7740004000002,2.017348899999888,284.59521140000015,284.5952216999999,284.6116373,284.6116373,285.6313602,"['1', '2', '1']","[0.5059264999999868, 0.7621428000002197]","[0.09629339999992226, 0.11206529999981285]",1,2,1,717,001,2024-10-02_14h41.03.579,Trial_mult,2023.2.1,59.87177859895493,2024-10-02 14h41.15.486119 -0400,
40,block1_trial40_attendleft_leadmasker.wav,0,39,39,39,285.64600389999987,,,,,,,,,285.6460778999999,285.66306620000023,2.015724500000033,291.51803610000024,291.5180467,291.53461640000023,291.53461640000023,292.7534986999999,"['3', '3', '2']","[0.6560278000001745, 0.8875009000003047]","[0.07925380000006044, 0.1286721999999827]",3,3,2,717,001,2024-10-02_14h41.03.579,Trial_mult,2023.2.1,59.87177859895493,2024-10-02 14h41.15.486119 -0400,
41,block2_trial1_attendleft_leadmasker.wav,0,40,40,40,292.7685011000003,,,,,,,,,299.97408429999996,299.99123080000027,2.0182362999998986,305.82925590000013,305.8292663000002,305.84613390000004,305.84613390000004,306.9975958,"['2', '3', '1']","[0.6172123000001193, 0.8963062000002537]","[0.0943674000000101, 0.18533019999995304]",2,3,1,717,001,2024-10-02_14h41.03.579,Trial_mult,2023.2.1,59.87177859895493,2024-10-02 14h41.15.486119 -0400,
42,block2_trial2_attendleft_leadtarget.wav,0,41,41,41,307.01311750000013,,,,,,,,,307.01318489999994,307.0302181000002,2.0172739999998157,312.8853535000003,312.8853641999999,312.9017907000002,312.9017907000002,313.8702478,"['2', '2', '2']","[0.4722689000000173, 0.721504399999958]","[0.11226489999990008, 0.09544819999973697]",2,2,2,717,001,2024-10-02_14h41.03.579,Trial_mult,2023.2.1,59.87177859895493,2024-10-02 14h41.15.486119 -0400,
43,block2_trial3_attendright_leadtarget.wav,0,42,42,42,313.8855288,,,,,,,,,313.8856026000003,313.90201130000014,2.0164967000000615,319.7577077000001,319.75771810000015,319.7738016000003,319.7738016000003,321.37595280000005,"['3', '1', '1']","[1.040128900000127, 1.2891759999997703]","[0.1372294999996484, 0.12711860000035813]",3,1,1,717,001,2024-10-02_14h41.03.579,Trial_mult,2023.2.1,59.87177859895493,2024-10-02 14h41.15.486119 -0400,
44,block2_trial4_attendright_leadtarget.wav,0,43,43,43,321.3913757,,,,,,,,,321.39144540000007,321.4084459999999,2.017077900000004,327.28027180000026,327.2802823000002,327.2968576000003,327.2968576000003,328.2482305000003,"['2', '2', '3']","[0.4939838000000236, 0.6945224999999482]","[0.09652400000004491, 0.09502259999999296]",2,2,3,717,001,2024-10-02_14h41.03.579,Trial_mult,2023.2.1,59.87177859895493,2024-10-02 14h41.15.486119 -0400,
45,block2_trial5_attendright_leadtarget.wav,0,44,44,44,328.2638030000003,,,,,,,,,328.2638771000002,328.28048850000005,2.0166886000001796,334.15249410000024,334.15250430000015,334.16877550000027,334.16877550000027,335.5043811999999,"['2', '3', '1']","[0.6133516999998392, 0.9489389999998821]","[0.16877449999992677, 0.15270289999989473]",2,3,1,717,001,2024-10-02_14h41.03.579,Trial_mult,2023.2.1,59.87177859895493,2024-10-02 14h41.15.486119 -0400,
46,block2_trial6_attendright_leadmasker.wav,0,45,45,45,335.5197691000003,,,,,,,,,335.5198427,335.535985,2.0167263000003004,341.3912005000002,341.39121120000027,341.40731989999995,341.40731989999995,342.2764526000001,"['1', '2', '2']","[0.44043020000026445, 0.6804302000000462]","[0.142305800000031, 0.07998099999986152]",1,2,2,717,001,2024-10-02_14h41.03.579,Trial_mult,2023.2.1,59.87177859895493,2024-10-02 14h41.15.486119 -0400,
47,block2_trial7_attendright_leadtarget.wav,0,46,46,46,342.29178600000023,,,,,,,,,342.2918586999999,342.30837550000024,2.0165039999997134,348.1796180000001,348.1796279,348.19660440000007,348.19660440000007,349.2988800000003,"['3', '3', '2']","[0.4344876000000113, 0.7386274000000412]","[0.14372350000030565, 0.14241690000017115]",3,3,2,717,001,2024-10-02_14h41.03.579,Trial_mult,2023.2.1,59.87177859895493,2024-10-02 14h41.15.486119 -0400,
48,block2_trial8_attendright_leadmasker.wav,0,47,47,47,349.31373239999994,,,,,,,,,349.3138001000002,349.3306877,2.0161542999999256,355.18605030000026,355.1860614000002,355.2026175000001,355.2026175000001,356.37110500000017,"['2', '2', '1']","[0.6918863999999303, 0.9243805000000975]","[0.1274281000000883, 0.14293279999992592]",2,2,1,717,001,2024-10-02_14h41.03.579,Trial_mult,2023.2.1,59.87177859895493,2024-10-02 14h41.15.486119 -0400,
49,block2_trial9_attendright_leadtarget.wav,0,48,48,48,356.38604250000026,,,,,,,,,356.3861205000003,356.4027868000003,2.0165391000000454,362.24088770000026,362.24089920000006,362.25749780000024,362.25749780000024,363.42675280000003,"['2', '2', '3']","[0.6055731999999807, 0.8698306999999659]","[0.12830200000007608, 0.13478699999996024]",2,2,3,717,001,2024-10-02_14h41.03.579,Trial_mult,2023.2.1,59.87177859895493,2024-10-02 14h41.15.486119 -0400,
50,block2_trial10_attendleft_leadmasker.wav,0,49,49,49,363.4423480999999,,,,,,,,,363.44242080000004,363.4589828000003,2.0168211999998675,369.29693339999994,369.2969443000002,369.3134186000002,369.3134186000002,370.61549360000026,"['2', '1', '1']","[0.6606023999997888, 1.0524648000000525]","[0.12920420000000377, 0.15268209999976534]",2,1,1,717,001,2024-10-02_14h41.03.579,Trial_mult,2023.2.1,59.87177859895493,2024-10-02 14h41.15.486119 -0400,
51,block2_trial11_attendleft_leadmasker.wav,0,50,50,50,370.63076490000003,,,,,,,,,370.6308339000002,370.6475531000001,2.01675669999986,376.5032999,376.5033106000001,376.51945160000014,376.51945160000014,377.3712135999999,"['1', '1', '1']","[0.391670399999839, 0.6148290999999517]","[0.10248850000016319, 0.10430949999999939]",1,1,1,717,001,2024-10-02_14h41.03.579,Trial_mult,2023.2.1,59.87177859895493,2024-10-02 14h41.15.486119 -0400,
52,block2_trial12_attendleft_leadmasker.wav,0,51,51,51,377.3865234,,,,,,,,,377.3865980999999,377.40344529999993,2.0169433000000936,383.24152630000026,383.24153830000023,383.2577408000002,383.2577408000002,384.8273240000003,"['2', '3', '1']","[0.6843023999999787, 1.0362139999997453]","[0.15220319999980347, 0.15254679999998189]",2,3,1,717,001,2024-10-02_14h41.03.579,Trial_mult,2023.2.1,59.87177859895493,2024-10-02 14h41.15.486119 -0400,
53,block2_trial13_attendright_leadmasker.wav,0,52,52,52,384.84236180000016,,,,,,,,,384.8424362999999,384.85895660000006,2.016686899999968,390.7148084999999,390.7148193000003,390.7313016000003,390.7313016000003,392.3332094000002,"['2', '2', '2']","[0.6984289000001809, 1.2031063999997968]","[0.1531503999999586, 0.1522981000002801]",2,2,2,717,001,2024-10-02_14h41.03.579,Trial_mult,2023.2.1,59.87177859895493,2024-10-02 14h41.15.486119 -0400,
54,block2_trial14_attendright_leadmasker.wav,0,53,53,53,392.34831380000014,,,,,,,,,392.3483933000002,392.36547010000004,2.016867100000127,398.1871980000001,398.1872085,398.2037419000003,398.2037419000003,399.03893530000005,"['1', '1', '3']","[0.3303155999997216, 0.5471794999998565]","[0.0959090000001197, 0.13491229999999632]",1,1,3,717,001,2024-10-02_14h41.03.579,Trial_mult,2023.2.1,59.87177859895493,2024-10-02 14h41.15.486119 -0400,
55,block2_trial15_attendleft_leadmasker.wav,0,54,54,54,399.0539047000002,,,,,,,,,399.05397919999996,399.07062210000004,2.016004200000225,404.9254906000001,404.9255005,404.94228599999997,404.94228599999997,409.0451035000001,"['2', '3']","[0.3914773999999852, 0.9598794999997153]","[0.11993660000007367, 0.19998390000000654]",2,3,NA,717,001,2024-10-02_14h41.03.579,Trial_mult,2023.2.1,59.87177859895493,2024-10-02 14h41.15.486119 -0400,
56,block2_trial16_attendleft_leadtarget.wav,0,55,55,55,409.0616967000001,,,,,,,,,409.06176570000025,409.0783203000001,2.023255099999915,414.9003643000001,414.90037470000016,414.9165396000003,414.9165396000003,416.1520995000001,"['2', '2', '2']","[0.8177807000001849, 1.0260489000002053]","[0.10452140000006693, 0.07197349999978542]",2,2,2,717,001,2024-10-02_14h41.03.579,Trial_mult,2023.2.1,59.87177859895493,2024-10-02 14h41.15.486119 -0400,
57,block2_trial17_attendleft_leadmasker.wav,0,56,56,56,416.1674256000001,,,,,,,,,416.16752339999994,416.1841331999999,2.0165287999998327,422.00571949999994,422.0057294000003,422.0221353000002,422.0221353000002,423.49162909999995,"['1', '1', '3']","[1.0477896000002147, 1.2728726999998798]","[0.1367643999997199, 0.1435180000003129]",1,1,3,717,001,2024-10-02_14h41.03.579,Trial_mult,2023.2.1,59.87177859895493,2024-10-02 14h41.15.486119 -0400,
58,block2_trial18_attendleft_leadtarget.wav,0,57,57,57,423.50732100000005,,,,,,,,,423.50739520000025,423.5240503,2.0165891999999985,429.3455395000001,429.3455501000003,429.36196340000015,429.36196340000015,430.51361110000016,"['1', '1', '3']","[0.38910600000008344, 0.6292208999998365]","[0.14317369999980656, 0.13647930000024644]",1,1,3,717,001,2024-10-02_14h41.03.579,Trial_mult,2023.2.1,59.87177859895493,2024-10-02 14h41.15.486119 -0400,
59,block2_trial19_attendleft_leadmasker.wav,0,58,58,58,430.52907270000014,,,,,,,,,430.5291390000002,430.5464208000003,2.0169552000002113,436.4012711999999,436.4012812000001,436.4170706,436.4170706,438.2035928,"['2', '2', '2']","[1.1335176999996293, 1.470226399999774]","[0.15931810000029145, 0.1590903999999682]",2,2,2,717,001,2024-10-02_14h41.03.579,Trial_mult,2023.2.1,59.87177859895493,2024-10-02 14h41.15.486119 -0400,
60,block2_trial20_attendright_leadmasker.wav,0,59,59,59,438.2185572000003,,,,,,,,,438.21863140000005,438.2357896000003,2.0167553999999654,444.0742055999999,444.0742158000003,444.0904823000001,444.0904823000001,445.5759436000003,"['1', '3', '1']","[0.8435599999997976, 1.1394696999996086]","[0.14452990000017962, 0.15294920000042111]",1,3,1,717,001,2024-10-02_14h41.03.579,Trial_mult,2023.2.1,59.87177859895493,2024-10-02 14h41.15.486119 -0400,
61,block2_trial21_attendright_leadtarget.wav,0,60,60,60,445.5911203999999,,,,,,,,,445.59118620000027,445.60796170000003,2.01708009999993,451.4635186999999,451.46352939999997,451.48002399999996,451.48002399999996,453.13246990000016,"['1', '2', '1']","[0.7338324000002103, 1.3338293000001613]","[0.13703949999990073, 0.16142750000017259]",1,2,1,717,001,2024-10-02_14h41.03.579,Trial_mult,2023.2.1,59.87177859895493,2024-10-02 14h41.15.486119 -0400,
62,block2_trial22_attendleft_leadtarget.wav,0,61,61,61,453.1474516000003,,,,,,,,,453.14753389999987,453.16387010000017,2.0157553999997617,459.0191503000001,459.01916040000015,459.03530950000004,459.03530950000004,463.1388268999999,"['2', '3']","[1.115988699999889, 1.3725319000000127]","[0.11878420000039114, 0.17405060000010053]",2,3,NA,717,001,2024-10-02_14h41.03.579,Trial_mult,2023.2.1,59.87177859895493,2024-10-02 14h41.15.486119 -0400,
63,block2_trial23_attendleft_leadtarget.wav,0,62,62,62,463.1557167000001,,,,,,,,,463.1557941000001,463.17201380000006,2.0234248999995543,469.01056659999995,469.01057720000017,469.02718490000007,469.02718490000007,470.1462279000002,"['2', '2', '3']","[0.5721677999999883, 0.8108704999999645]","[0.1273641000002499, 0.12924440000006143]",2,2,3,717,001,2024-10-02_14h41.03.579,Trial_mult,2023.2.1,59.87177859895493,2024-10-02 14h41.15.486119 -0400,
64,block2_trial24_attendleft_leadtarget.wav,0,63,63,63,470.16141700000026,,,,,,,,,470.16148840000005,470.17782810000017,2.0161032000000887,476.0163633000002,476.01637389999996,476.03231989999995,476.03231989999995,477.55178990000013,"['2', '1', '3']","[0.8298021999999037, 1.2382176999999501]","[0.15336280000019542, 0.14349600000014107]",2,1,3,717,001,2024-10-02_14h41.03.579,Trial_mult,2023.2.1,59.87177859895493,2024-10-02 14h41.15.486119 -0400,
65,block2_trial25_attendright_leadmasker.wav,0,64,64,64,477.56719569999996,,,,,,,,,477.5672690000001,477.5841069000003,2.016153900000063,483.4061308,483.4061422,483.4224107,483.4224107,484.6571680000002,"['2', '2', '3']","[0.7361857999999302, 0.9678853999998864]","[0.12068910000016331, 0.12101519999987431]",2,2,3,717,001,2024-10-02_14h41.03.579,Trial_mult,2023.2.1,59.87177859895493,2024-10-02 14h41.15.486119 -0400,
66,block2_trial26_attendright_leadmasker.wav,0,65,65,65,484.67286120000017,,,,,,,,,484.6729425000003,484.6895792,2.016972899999928,490.5617121,490.56172229999993,490.5780878999999,490.5780878999999,491.73053400000026,"['2', '3', '1']","[0.581416999999874, 0.828503599999749]","[0.1195477999999639, 0.16801890000033382]",2,3,1,717,001,2024-10-02_14h41.03.579,Trial_mult,2023.2.1,59.87177859895493,2024-10-02 14h41.15.486119 -0400,
67,block2_trial27_attendright_leadtarget.wav,0,66,66,66,491.7451996,,,,,,,,,491.7452728000003,491.7615575,2.0156544000001304,497.6175390000003,497.61754980000023,497.6338638000002,497.6338638000002,498.51855449999994,"['2', '2', '1']","[0.3887105999997402, 0.6207473999998001]","[0.11185410000007323, 0.12823400000024776]",2,2,1,717,001,2024-10-02_14h41.03.579,Trial_mult,2023.2.1,59.87177859895493,2024-10-02 14h41.15.486119 -0400,
68,block2_trial28_attendleft_leadmasker.wav,0,67,67,67,498.5339792,,,,,,,,,498.5340523,498.5508089,2.0163876000001437,504.38868360000015,504.3886941999999,504.40527010000005,504.40527010000005,505.524187,"['3', '2', '1']","[0.440807599999971, 0.7529251000000841]","[0.12086440000030052, 0.16043590000026597]",3,2,1,717,001,2024-10-02_14h41.03.579,Trial_mult,2023.2.1,59.87177859895493,2024-10-02 14h41.15.486119 -0400,
69,block2_trial29_attendright_leadtarget.wav,0,68,68,68,505.5394452999999,,,,,,,,,505.5395206000003,505.55633609999995,2.0168023999999605,511.4115965000001,511.411607,511.4283115000003,511.4283115000003,512.3298768,"['2', '2', '2']","[0.44964170000002923, 0.6735232000000906]","[0.09691960000009203, 0.11260070000025735]",2,2,2,717,001,2024-10-02_14h41.03.579,Trial_mult,2023.2.1,59.87177859895493,2024-10-02 14h41.15.486119 -0400,
70,block2_trial30_attendleft_leadtarget.wav,0,69,69,69,512.3448155000001,,,,,,,,,512.3448840000001,512.3618363999999,2.0164307999998528,518.1835368000002,518.1835473000001,518.1995130999999,518.1995130999999,518.9353993,"['2', '2', '1']","[0.2879533000000265, 0.47067550000019764]","[0.054540000000088185, 0.12867770000002565]",2,2,1,717,001,2024-10-02_14h41.03.579,Trial_mult,2023.2.1,59.87177859895493,2024-10-02 14h41.15.486119 -0400,
71,block2_trial31_attendright_leadmasker.wav,0,70,70,70,518.9503680000003,,,,,,,,,518.9504413,518.9673213000001,2.0161855000001196,524.8219373000002,524.8219480000002,524.8388648,524.8388648,525.8079349,"['2', '2', '3']","[0.5120178000001943, 0.73515690000022]","[0.15130469999985507, 0.13592609999977867]",2,2,3,717,001,2024-10-02_14h41.03.579,Trial_mult,2023.2.1,59.87177859895493,2024-10-02 14h41.15.486119 -0400,
72,block2_trial32_attendleft_leadtarget.wav,0,71,71,71,525.8229041,,,,,,,,,525.8229871000003,525.8393137000003,2.0156575999999404,531.6942877000001,531.6942982999999,531.7107332999999,531.7107332999999,532.6129891999999,"['3', '2', '2']","[0.4000444000002972, 0.6714466000003085]","[0.11148779999984981, 0.1056442999997671]",3,2,2,717,001,2024-10-02_14h41.03.579,Trial_mult,2023.2.1,59.87177859895493,2024-10-02 14h41.15.486119 -0400,
73,block2_trial33_attendright_leadtarget.wav,0,72,72,72,532.6279786,,,,,,,,,532.6280537000002,532.644702,2.0166079999999056,538.4835297,538.4835398999999,538.5001388999999,538.5001388999999,539.7691182000003,"['3', '2', '1']","[0.6588642000001528, 0.889937600000394]","[0.12012259999983144, 0.1211063999999169]",3,2,1,717,001,2024-10-02_14h41.03.579,Trial_mult,2023.2.1,59.87177859895493,2024-10-02 14h41.15.486119 -0400,
74,block2_trial34_attendright_leadtarget.wav,0,73,73,73,539.7838148999999,,,,,,,,,539.7838805000001,539.8003082,2.0156959999999344,545.6388930000003,545.6389041000002,545.6551013000003,545.6551013000003,547.1077546000001,"['1', '1', '2']","[0.9758903000001737, 1.1989702000000761]","[0.1436290999999983, 0.13584290000017063]",1,1,2,717,001,2024-10-02_14h41.03.579,Trial_mult,2023.2.1,59.87177859895493,2024-10-02 14h41.15.486119 -0400,
75,block2_trial35_attendright_leadmasker.wav,0,74,74,74,547.1228009000001,,,,,,,,,547.1228753,547.1400036,2.0164920000001985,552.9779816999999,552.9779920999999,552.9942197999999,552.9942197999999,554.1636029000001,"['2', '2', '3']","[0.6687744999999268, 0.8612516999996842]","[0.11900770000011107, 0.1920932000002722]",2,2,3,717,001,2024-10-02_14h41.03.579,Trial_mult,2023.2.1,59.87177859895493,2024-10-02 14h41.15.486119 -0400,
76,block2_trial36_attendleft_leadtarget.wav,0,75,75,75,554.1788015000002,,,,,,,,,554.1788823000002,554.1951278000001,2.016275399999813,560.0334019000002,560.0334120000002,560.0500113000003,560.0500113000003,561.6692787000002,"['1', '2', '3']","[0.9329947999999604, 1.2200983000002452]","[0.14414170000009108, 0.1610099999998056]",1,2,3,717,001,2024-10-02_14h41.03.579,Trial_mult,2023.2.1,59.87177859895493,2024-10-02 14h41.15.486119 -0400,
77,block2_trial37_attendleft_leadmasker.wav,0,76,76,76,561.6847151000002,,,,,,,,,561.6847878000003,561.7011789000003,2.0168014000000767,567.5565669000002,567.5565776000003,567.5733473,567.5733473,569.1418274000002,"['3', '2', '2']","[0.5685037000002922, 0.9455535000001873]","[0.1121026000000711, 0.11335629999985031]",3,2,2,717,001,2024-10-02_14h41.03.579,Trial_mult,2023.2.1,59.87177859895493,2024-10-02 14h41.15.486119 -0400,
78,block2_trial38_attendleft_leadtarget.wav,0,77,77,77,569.1575453999999,,,,,,,,,569.1576224999999,569.1743558000003,2.016782300000159,575.0295120000001,575.0295232000003,575.0460726000001,575.0460726000001,576.1476903000002,"['1', '3', '2']","[0.6406621000000996, 0.8816541000001052]","[0.12826289999975415, 0.12685899999996764]",1,3,2,717,001,2024-10-02_14h41.03.579,Trial_mult,2023.2.1,59.87177859895493,2024-10-02 14h41.15.486119 -0400,
79,block2_trial39_attendright_leadmasker.wav,0,78,78,78,576.1629176000001,,,,,,,,,576.1629915000003,576.1798735000002,2.0163496999998642,582.0344018000001,582.0344122000001,582.0510718999999,582.0510718999999,583.6202259000002,"['3', '2', '3']","[0.980065199999899, 1.228089799999907]","[0.14372439999988273, 0.09575390000009065]",3,2,3,717,001,2024-10-02_14h41.03.579,Trial_mult,2023.2.1,59.87177859895493,2024-10-02 14h41.15.486119 -0400,
80,block2_trial40_attendleft_leadmasker.wav,0,79,79,79,583.6354850000002,,,,,,,,,583.6355589,583.6519689000002,2.016470500000196,589.5236414999999,589.5236520000003,589.5403506000002,589.5403506000002,590.7428290000003,"['2', '2', '2']","[0.6263260000000628, 0.8835386999999173]","[0.06390430000010383, 0.11014460000023973]",2,2,2,717,001,2024-10-02_14h41.03.579,Trial_mult,2023.2.1,59.87177859895493,2024-10-02 14h41.15.486119 -0400,
81,block3_trial1_attendright_leadmasker.wav,0,80,80,80,590.7580619999999,,,,,,,,,597.146362,597.1634856999999,2.018654500000139,602.9854215999999,602.9854341,603.0016298999999,603.0016298999999,603.6360639,"['2', '2', '2']","[0.13269270000000688, 0.34829119999994873]","[0.0734495000001516, 0.145388400000229]",2,2,2,717,001,2024-10-02_14h41.03.579,Trial_mult,2023.2.1,59.87177859895493,2024-10-02 14h41.15.486119 -0400,
82,block3_trial2_attendright_leadmasker.wav,0,81,81,81,603.6519627000002,,,,,,,,,603.6520420000002,603.6684752000001,2.016780800000106,609.5404047000002,609.5404153,609.5568847,609.5568847,610.4084181000003,"['3', '3', '2']","[0.3530227000001105, 0.5693915000001653]","[0.10473809999984951, 0.1278650999997808]",3,3,2,717,001,2024-10-02_14h41.03.579,Trial_mult,2023.2.1,59.87177859895493,2024-10-02 14h41.15.486119 -0400,
83,block3_trial3_attendright_leadmasker.wav,0,82,82,82,610.4241101000002,,,,,,,,,610.4241848000001,610.4403327,2.0164718999999423,616.2623263,616.2623367000001,616.2786832000002,616.2786832000002,617.3643901,"['2', '2', '3']","[0.688948800000162, 0.8954136000002109]","[0.11117060000015044, 0.12011859999984154]",2,2,3,717,001,2024-10-02_14h41.03.579,Trial_mult,2023.2.1,59.87177859895493,2024-10-02 14h41.15.486119 -0400,
84,block3_trial4_attendright_leadmasker.wav,0,83,83,83,617.3797898000003,,,,,,,,,617.3798633000001,617.3959706,2.0163620000002993,623.2349813999999,623.234993,623.2513558,623.2513558,624.4867397000003,"['2', '2', '3']","[0.5317057000002023, 0.7390192000002571]","[0.12796509999998307, 0.15320909999991272]",2,2,3,717,001,2024-10-02_14h41.03.579,Trial_mult,2023.2.1,59.87177859895493,2024-10-02 14h41.15.486119 -0400,
85,block3_trial5_attendright_leadmasker.wav,0,84,84,84,624.5018221,,,,,,,,,624.5019001000001,624.5184371999999,2.016199400000005,630.3903427,630.3903533000002,630.4073447999999,630.4073447999999,631.5589927999999,"['2', '2', '1']","[0.5348469999998997, 0.751202199999625]","[0.0968350999996801, 0.0962163000003784]",2,2,1,717,001,2024-10-02_14h41.03.579,Trial_mult,2023.2.1,59.87177859895493,2024-10-02 14h41.15.486119 -0400,
86,block3_trial6_attendright_leadtarget.wav,0,85,85,85,631.5739465000001,,,,,,,,,631.5740134000002,631.5906042000001,2.0168932999999925,637.4463033000002,637.4463137000002,637.4629806000003,637.4629806000003,638.6481365,"['3', '3', '3']","[0.5599522999996225, 0.8646388999995906]","[0.1364520000001903, 0.1600180000000364]",3,3,3,717,001,2024-10-02_14h41.03.579,Trial_mult,2023.2.1,59.87177859895493,2024-10-02 14h41.15.486119 -0400,
87,block3_trial7_attendleft_leadmasker.wav,0,86,86,86,638.6631542,,,,,,,,,638.6632276,638.6798741000002,2.0167899000002762,644.5018653000002,644.5018763000003,644.5186300999999,644.5186300999999,648.6544763000002,"['3', '2']","[0.6877746999998635, 1.0644215000002077]","[0.16905960000030973, 0.15228969999998299]",3,2,NA,717,001,2024-10-02_14h41.03.579,Trial_mult,2023.2.1,59.87177859895493,2024-10-02 14h41.15.486119 -0400,
88,block3_trial8_attendright_leadmasker.wav,0,87,87,87,648.6711647000002,,,,,,,,,648.6712361,648.6880282000002,2.0236825000001772,654.5262849000001,654.5262969999999,654.5423896000002,654.5423896000002,658.6632023000002,"['1', '3']","[-0.0001664000001255772, 0.6888033999998697]","[0.13635960000010527, 0.12773060000017722]",1,3,NA,717,001,2024-10-02_14h41.03.579,Trial_mult,2023.2.1,59.87177859895493,2024-10-02 14h41.15.486119 -0400,
89,block3_trial9_attendright_leadtarget.wav,0,88,88,88,658.6796211000001,,,,,,,,,658.6796960000001,658.6958004000003,2.031500000000051,664.5182629000001,664.5182735000003,664.5344964999999,664.5344964999999,665.6192997000003,"['1', '1', '1']","[0.5595741000001908, 0.8085679999999229]","[0.12995609999961744, 0.13593680000030872]",1,1,1,717,001,2024-10-02_14h41.03.579,Trial_mult,2023.2.1,59.87177859895493,2024-10-02 14h41.15.486119 -0400,
90,block3_trial10_attendleft_leadtarget.wav,0,89,89,89,665.6350057,,,,,,,,,665.635072,665.6514571000002,2.01702110000042,671.4902202000003,671.4902314000001,671.5060116,671.5060116,672.5754765000001,"['1', '2', '1']","[0.3893818999999894, 0.6842892999998185]","[0.1514564999997674, 0.16046810000034384]",1,2,1,717,001,2024-10-02_14h41.03.579,Trial_mult,2023.2.1,59.87177859895493,2024-10-02 14h41.15.486119 -0400,
91,block3_trial11_attendright_leadtarget.wav,0,90,90,90,672.5906432000002,,,,,,,,,672.5907163000002,672.6074063000001,2.016039699999965,678.4453392999999,678.4453498000003,678.4619707000002,678.4619707000002,679.4304599000002,"['2', '3', '1']","[0.24910399999998845, 0.5040217000000666]","[0.128000400000019, 0.16171900000017558]",2,3,1,717,001,2024-10-02_14h41.03.579,Trial_mult,2023.2.1,59.87177859895493,2024-10-02 14h41.15.486119 -0400,
92,block3_trial12_attendleft_leadmasker.wav,0,91,91,91,679.4458961,,,,,,,,,679.4459660000002,679.4627165000002,2.0169722000000547,685.3175073000002,685.317517,685.3339633999999,685.3339633999999,686.4193636,"['2', '2', '1']","[0.6093359000001328, 0.8327186999999867]","[0.08797739999999976, 0.0961912000002485]",2,2,1,717,001,2024-10-02_14h41.03.579,Trial_mult,2023.2.1,59.87177859895493,2024-10-02 14h41.15.486119 -0400,
93,block3_trial13_attendleft_leadtarget.wav,0,92,92,92,686.4349855,,,,,,,,,686.4350632999999,686.4516981000002,2.0166416000001846,692.2900521000001,692.2900642,692.3068389,692.3068389,693.5918319000002,"['1', '1', '2']","[0.7169394000002285, 0.972024500000316]","[0.13505110000005516, 0.11116569999967396]",1,1,2,717,001,2024-10-02_14h41.03.579,Trial_mult,2023.2.1,59.87177859895493,2024-10-02 14h41.15.486119 -0400,
94,block3_trial14_attendleft_leadtarget.wav,0,93,93,93,693.6073168000003,,,,,,,,,693.6073916999999,693.6243509999999,2.016920900000059,699.4791718000001,699.4791825000002,699.4954444,699.4954444,701.4317934000001,"['1', '2', '1']","[0.5925429999997505, 1.50313049999977]","[0.18324230000007447, 0.1608486999998604]",1,2,1,717,001,2024-10-02_14h41.03.579,Trial_mult,2023.2.1,59.87177859895493,2024-10-02 14h41.15.486119 -0400,
95,block3_trial15_attendleft_leadtarget.wav,0,94,94,94,701.4470979000002,,,,,,,,,701.4471725000003,701.4635989000003,2.0165118999998413,707.2849719000001,707.2849836,707.3014843999999,707.3014843999999,708.2709147,"['3', '3', '2']","[0.4328093999997691, 0.6888163999997232]","[0.14462540000022273, 0.13574170000038066]",3,3,2,717,001,2024-10-02_14h41.03.579,Trial_mult,2023.2.1,59.87177859895493,2024-10-02 14h41.15.486119 -0400,
96,block3_trial16_attendright_leadtarget.wav,0,95,95,95,708.2859183999999,,,,,,,,,708.2860203,708.3028171999999,2.0160695999998097,714.1576368999999,714.1576476,714.1742396,714.1742396,715.3595378,"['2', '2', '1']","[0.6167924999999741, 0.8806144000000131]","[0.12087880000035511, 0.11991669999997612]",2,2,1,717,001,2024-10-02_14h41.03.579,Trial_mult,2023.2.1,59.87177859895493,2024-10-02 14h41.15.486119 -0400,
97,block3_trial17_attendleft_leadtarget.wav,0,96,96,96,715.3749478,,,,,,,,,715.3750213000003,715.3915901,2.016409900000326,721.2129647000002,721.2129752000001,721.2294393000002,721.2294393000002,722.4819870000001,"['2', '2', '3']","[0.6410824999998113, 0.8660479999998643]","[0.10491390000015599, 0.16667210000014165]",2,2,3,717,001,2024-10-02_14h41.03.579,Trial_mult,2023.2.1,59.87177859895493,2024-10-02 14h41.15.486119 -0400,
98,block3_trial18_attendleft_leadmasker.wav,0,97,97,97,722.4974818999999,,,,,,,,,722.4975659000002,722.5137193,2.016547300000184,728.3689877000002,728.3689984000002,728.3857095000003,728.3857095000003,729.4041148000001,"['2', '2', '1']","[0.46836919999987003, 0.7425970999997844]","[0.14420770000015182, 0.1512142000001404]",2,2,1,717,001,2024-10-02_14h41.03.579,Trial_mult,2023.2.1,59.87177859895493,2024-10-02 14h41.15.486119 -0400,
99,block3_trial19_attendright_leadmasker.wav,0,98,98,98,729.4195481000002,,,,,,,,,729.4196197000001,729.4360084,2.0166621000003033,735.2912653000003,735.291275,735.3083274,735.3083274,736.4099047,"['3', '2', '3']","[0.570813299999827, 0.8348856999996315]","[0.15233059999991383, 0.1357125000004089]",3,2,3,717,001,2024-10-02_14h41.03.579,Trial_mult,2023.2.1,59.87177859895493,2024-10-02 14h41.15.486119 -0400,
100,block3_trial20_attendright_leadmasker.wav,0,99,99,99,736.4253201000001,,,,,,,,,736.4253975000001,736.4421508,2.016769899999872,742.2968526,742.2968633,742.3134170000003,742.3134170000003,744.4162132000001,"['2', '3', '3']","[0.644643200000246, 1.8388051000001724]","[0.1453638999996656, 0.1419101999999839]",2,3,3,717,001,2024-10-02_14h41.03.579,Trial_mult,2023.2.1,59.87177859895493,2024-10-02 14h41.15.486119 -0400,
101,block3_trial21_attendright_leadtarget.wav,0,100,100,100,744.4315188,,,,,,,,,744.4315900000001,744.4481556999999,2.0163987999999335,750.2864807999999,750.2864923000002,750.3028518000001,750.3028518000001,751.5222096000002,"['2', '1', '2']","[0.5595806000001176, 0.9691296999999395]","[0.15334549999988667, 0.15932950000023993]",2,1,2,717,001,2024-10-02_14h41.03.579,Trial_mult,2023.2.1,59.87177859895493,2024-10-02 14h41.15.486119 -0400,
102,block3_trial22_attendright_leadmasker.wav,0,101,101,101,751.5374796000001,,,,,,,,,751.5375641999999,751.5542679,2.016147799999999,757.3920900000003,757.3921003,757.4089985999999,757.4089985999999,758.9945118,"['3', '2', '2']","[1.0304206999999224, 1.3014689999999973]","[0.14344219999975394, 0.14428629999974873]",3,2,2,717,001,2024-10-02_14h41.03.579,Trial_mult,2023.2.1,59.87177859895493,2024-10-02 14h41.15.486119 -0400,
103,block3_trial23_attendright_leadtarget.wav,0,102,102,102,759.0100378000002,,,,,,,,,759.0101061999999,759.0265021999999,2.0174074999999903,764.8652046000002,764.8652155,764.8811197,764.8811197,766.350762,"['1', '3', '2']","[0.5664891000001262, 1.158313299999918]","[0.1672521999998935, 0.14264500000035696]",1,3,2,717,001,2024-10-02_14h41.03.579,Trial_mult,2023.2.1,59.87177859895493,2024-10-02 14h41.15.486119 -0400,
104,block3_trial24_attendleft_leadmasker.wav,0,103,103,103,766.3661569999999,,,,,,,,,766.3662312000001,766.3825833999999,2.0163590999995904,772.2042948000003,772.2043060000001,772.220687,772.220687,773.2562109999999,"['1', '1', '1']","[0.5055178000002343, 0.7548810000002959]","[0.10510179999982938, 0.11059549999981755]",1,1,1,717,001,2024-10-02_14h41.03.579,Trial_mult,2023.2.1,59.87177859895493,2024-10-02 14h41.15.486119 -0400,
105,block3_trial25_attendright_leadmasker.wav,0,104,104,104,773.271538,,,,,,,,,773.2716103000002,773.2881771000002,2.0167461000000912,779.1262758000003,779.1262876000001,779.1428193000002,779.1428193000002,780.2781250000003,"['2', '2', '1']","[0.6001387000001159, 0.8646675999998479]","[0.11996529999987615, 0.15279080000027534]",2,2,1,717,001,2024-10-02_14h41.03.579,Trial_mult,2023.2.1,59.87177859895493,2024-10-02 14h41.15.486119 -0400,
106,block3_trial26_attendright_leadtarget.wav,0,105,105,105,780.2935597000001,,,,,,,,,780.2936282000001,780.3101627000001,2.0169465999997556,786.1486724000001,786.1486831000002,786.1654206000003,786.1654206000003,787.2675902999999,"['1', '3', '2']","[0.5784183000000667, 0.8094553000000815]","[0.13631350000014208, 0.1595898999999008]",1,3,2,717,001,2024-10-02_14h41.03.579,Trial_mult,2023.2.1,59.87177859895493,2024-10-02 14h41.15.486119 -0400,
107,block3_trial27_attendleft_leadtarget.wav,0,106,106,106,787.2826198000002,,,,,,,,,787.2826935000003,787.2994870000002,2.0163541000001715,793.1546805000003,793.1546944000002,793.1710685000003,793.1710685000003,794.4058588000003,"['1', '1', '2']","[0.780065100000229, 0.9965648000002147]","[0.09577209999997649, 0.12705109999978959]",1,1,2,717,001,2024-10-02_14h41.03.579,Trial_mult,2023.2.1,59.87177859895493,2024-10-02 14h41.15.486119 -0400,
108,block3_trial28_attendleft_leadmasker.wav,0,107,107,107,794.4216819000003,,,,,,,,,794.4217561,794.4387515000003,2.017223400000148,800.2607968000002,800.2608073000001,800.2769630000003,800.2769630000003,801.6290332000003,"['2', '3', '1']","[0.7394067000000177, 1.0259069000003365]","[0.1498527000003378, 0.15184249999992971]",2,3,1,717,001,2024-10-02_14h41.03.579,Trial_mult,2023.2.1,59.87177859895493,2024-10-02 14h41.15.486119 -0400,
109,block3_trial29_attendleft_leadtarget.wav,0,108,108,108,801.6443366000003,,,,,,,,,801.6444099,801.6609589,2.016317099999924,807.4990861000001,807.4990966,807.5159665000001,807.5159665000001,808.8016624000002,"['2', '3', '1']","[0.41241509999963455, 0.8671353999998246]","[0.15116420000003927, 0.13526339999998527]",2,3,1,717,001,2024-10-02_14h41.03.579,Trial_mult,2023.2.1,59.87177859895493,2024-10-02 14h41.15.486119 -0400,
110,block3_trial30_attendright_leadtarget.wav,0,109,109,109,808.8164111000001,,,,,,,,,808.8164798000003,808.8333502,2.016364600000088,814.6553346000001,814.6553446000003,814.6722471000003,814.6722471000003,815.7401168000001,"['2', '2', '2']","[0.5662330000000111, 0.8143050000003313]","[0.12084240000012869, 0.09619419999989987]",2,2,2,717,001,2024-10-02_14h41.03.579,Trial_mult,2023.2.1,59.87177859895493,2024-10-02 14h41.15.486119 -0400,
111,block3_trial31_attendleft_leadmasker.wav,0,110,110,110,815.7558157000003,,,,,,,,,815.7558883000002,815.7721561000003,2.0166157999997267,821.6277085000002,821.6277192000002,821.6439230000001,821.6439230000001,822.5795382000001,"['2', '2', '1']","[0.49158189999980095, 0.6911760999996659]","[0.0799274000000878, 0.11998160000030111]",2,2,1,717,001,2024-10-02_14h41.03.579,Trial_mult,2023.2.1,59.87177859895493,2024-10-02 14h41.15.486119 -0400,
112,block3_trial32_attendleft_leadtarget.wav,0,111,111,111,822.5944978000002,,,,,,,,,822.5945698,822.6110437000002,2.0161937999996553,828.4501373000003,828.4501482999999,828.4666365000003,828.4666365000003,832.5856785999999,"['3', '2']","[0.5565209000001232, 0.7885254000002533]","[0.15110520000007455, 0.12771599999996397]",3,2,NA,717,001,2024-10-02_14h41.03.579,Trial_mult,2023.2.1,59.87177859895493,2024-10-02 14h41.15.486119 -0400,
113,block3_trial33_attendleft_leadtarget.wav,0,112,112,112,832.6025061999999,,,,,,,,,832.6025798999999,832.6194759,2.0238157999997384,838.4740087,838.4740201,838.4910666000001,838.4910666000001,839.6267273000003,"['3', '3', '3']","[0.587916899999982, 0.8279992000002494]","[0.1519044000001486, 0.13636599999972532]",3,3,3,717,001,2024-10-02_14h41.03.579,Trial_mult,2023.2.1,59.87177859895493,2024-10-02 14h41.15.486119 -0400,
114,block3_trial34_attendright_leadtarget.wav,0,113,113,113,839.6413185000001,,,,,,,,,839.6413866000003,839.6586157000002,2.0157352999999603,845.4968330000002,845.4968462000002,845.5132240000003,845.5132240000003,846.5149691000001,"['3', '3', '3']","[0.4460298999997576, 0.7101715999997396]","[0.13563480000038908, 0.1432792000000518]",3,3,3,717,001,2024-10-02_14h41.03.579,Trial_mult,2023.2.1,59.87177859895493,2024-10-02 14h41.15.486119 -0400,
115,block3_trial35_attendleft_leadmasker.wav,0,114,114,114,846.5304478000003,,,,,,,,,846.5305175000003,846.5474222000003,2.0169079000002057,852.4186636,852.4186766000003,852.4348138999999,852.4348138999999,853.7043956000002,"['2', '2', '2']","[0.5484912000001714, 0.9393608999998833]","[0.14433710000002975, 0.16105760000027658]",2,2,2,717,001,2024-10-02_14h41.03.579,Trial_mult,2023.2.1,59.87177859895493,2024-10-02 14h41.15.486119 -0400,
116,block3_trial36_attendleft_leadmasker.wav,0,115,115,115,853.7192800000003,,,,,,,,,853.7193553000002,853.7366087999999,2.016239399999904,859.5578046,859.5578148,859.5739542000001,859.5739542000001,860.7600027000003,"['1', '3', '3']","[0.6898858999998083, 0.9444634999999835]","[0.13531390000025567, 0.13700040000003355]",1,3,3,717,001,2024-10-02_14h41.03.579,Trial_mult,2023.2.1,59.87177859895493,2024-10-02 14h41.15.486119 -0400,
117,block3_trial37_attendright_leadtarget.wav,0,116,116,116,860.7754183000002,,,,,,,,,860.7754917000002,860.7918757000002,2.016356799999812,866.6135076999999,866.6135178,866.6296788,866.6296788,867.6985205000001,"['2', '2', '2']","[0.5455391999998938, 0.7687447999996948]","[0.1356605999999374, 0.16776030000028186]",2,2,2,717,001,2024-10-02_14h41.03.579,Trial_mult,2023.2.1,59.87177859895493,2024-10-02 14h41.15.486119 -0400,
118,block3_trial38_attendleft_leadtarget.wav,0,117,117,117,867.7139245000003,,,,,,,,,867.7140060000002,867.7304846000002,2.016520400000445,873.5861267,873.5861379000003,873.6027153,873.6027153,874.5038429000001,"['1', '1', '1']","[0.36468829999967056, 0.5967099999998027]","[0.11934130000008736, 0.1350216000000728]",1,1,1,717,001,2024-10-02_14h41.03.579,Trial_mult,2023.2.1,59.87177859895493,2024-10-02 14h41.15.486119 -0400,
119,block3_trial39_attendleft_leadmasker.wav,0,118,118,118,874.5196186000003,,,,,,,,,874.5196931,874.5364566000003,2.017087200000333,880.3577776000002,880.3577879,880.3744729,880.3744729,881.5097112000003,"['2', '2', '2']","[0.6407269999999698, 0.889612500000112]","[0.10338779999983672, 0.11100569999962318]",2,2,2,717,001,2024-10-02_14h41.03.579,Trial_mult,2023.2.1,59.87177859895493,2024-10-02 14h41.15.486119 -0400,
120,block3_trial40_attendleft_leadmasker.wav,0,119,119,119,881.5254472000001,,,,,,,,,881.5255207,881.5418268000003,2.017044199999873,887.3806683000003,887.3806792999999,887.3970970999999,887.3970970999999,888.6826792000002,"['1', '1', '1']","[0.8107476000000133, 1.0419794999997976]","[0.1201642000000902, 0.11297719999993205]",1,1,1,717,001,2024-10-02_14h41.03.579,Trial_mult,2023.2.1,59.87177859895493,2024-10-02 14h41.15.486119 -0400,
121,block4_trial1_attendright_leadmasker.wav,0,120,120,120,888.6975556000002,,,,,,,,,899.7731120000003,899.7899155,2.0182305000003,905.6285554000001,905.6285667000002,905.6448205000002,905.6448205000002,906.7634886999999,"['1', '1', '1']","[0.6273569999998472, 0.8660353000000214]","[0.11084140000002662, 0.1278389999997671]",1,1,1,717,001,2024-10-02_14h41.03.579,Trial_mult,2023.2.1,59.87177859895493,2024-10-02 14h41.15.486119 -0400,
122,block4_trial2_attendleft_leadmasker.wav,0,121,121,121,906.7788406,,,,,,,,,906.7789146,906.7954132,2.0165463999996973,912.6340068,912.6340172999999,912.6502759,912.6502759,914.0023987,"['1', '3', '2']","[0.925960699999905, 1.1489199999996345]","[0.14258639999980005, 0.16874010000037742]",1,3,2,717,001,2024-10-02_14h41.03.579,Trial_mult,2023.2.1,59.87177859895493,2024-10-02 14h41.15.486119 -0400,
123,block4_trial3_attendright_leadtarget.wav,0,122,122,122,914.0180851,,,,,,,,,914.0181600999999,914.0348207000002,2.016983699999855,919.8900272999999,919.8900382000002,919.9063143000003,919.9063143000003,921.3256391,"['1', '1', '2']","[0.8368743000000904, 1.092360500000268]","[0.1433871999997791, 0.1600365999997848]",1,1,2,717,001,2024-10-02_14h41.03.579,Trial_mult,2023.2.1,59.87177859895493,2024-10-02 14h41.15.486119 -0400,
124,block4_trial4_attendright_leadmasker.wav,0,123,123,123,921.3404877000003,,,,,,,,,921.3405594999999,921.3574822,2.016260500000044,927.179044,927.1790550000001,927.1953584000003,927.1953584000003,928.4638970999999,"['2', '2', '2']","[0.7401429000001372, 0.9797745000000759]","[0.11977929999966364, 0.1435143999997308]",2,2,2,717,001,2024-10-02_14h41.03.579,Trial_mult,2023.2.1,59.87177859895493,2024-10-02 14h41.15.486119 -0400,
125,block4_trial5_attendright_leadmasker.wav,0,124,124,124,928.4793984000003,,,,,,,,,928.4794777000002,928.4962482999999,2.0170130999999856,934.3348893000002,934.3348995000001,934.3517844000003,934.3517844000003,935.5870165000001,"['2', '1', '3']","[0.46409089999997377, 0.9835327999999208]","[0.15943770000012591, 0.15173840000034033]",2,1,3,717,001,2024-10-02_14h41.03.579,Trial_mult,2023.2.1,59.87177859895493,2024-10-02 14h41.15.486119 -0400,
126,block4_trial6_attendleft_leadmasker.wav,0,125,125,125,935.6019663000002,,,,,,,,,935.6020403000002,935.6183384999999,2.0161549999997987,941.4736390000003,941.4736499999999,941.4900407,941.4900407,942.6756451000001,"['2', '2', '3']","[0.7091141999999309, 0.9246170999999777]","[0.11267189999989569, 0.14413329999979396]",2,2,3,717,001,2024-10-02_14h41.03.579,Trial_mult,2023.2.1,59.87177859895493,2024-10-02 14h41.15.486119 -0400,
127,block4_trial7_attendleft_leadtarget.wav,0,126,126,126,942.6908053000002,,,,,,,,,942.6908713000003,942.7077008000001,2.016350099999727,948.5463887999999,948.5464003000002,948.5623725999999,948.5623725999999,949.7144311000002,"['1', '2', '3']","[0.5800802000003387, 0.8607194000001073]","[0.15320930000007138, 0.14475790000005873]",1,2,3,717,001,2024-10-02_14h41.03.579,Trial_mult,2023.2.1,59.87177859895493,2024-10-02 14h41.15.486119 -0400,
128,block4_trial8_attendright_leadtarget.wav,0,127,127,127,949.7297063999999,,,,,,,,,949.7297754000001,949.7470106000001,2.01645230000031,955.6020407999999,955.6020513000003,955.6188377000003,955.6188377000003,957.1369985000001,"['2', '2', '3']","[0.6755275999998958, 1.2043404999999439]","[0.15299450000020443, 0.14456449999988763]",2,2,3,717,001,2024-10-02_14h41.03.579,Trial_mult,2023.2.1,59.87177859895493,2024-10-02 14h41.15.486119 -0400,
129,block4_trial9_attendright_leadmasker.wav,0,128,128,128,957.1527323,,,,,,,,,957.1528035000001,957.1694551,2.0170579000000544,963.0245138,963.0245239000001,963.0406195999999,963.0406195999999,964.1600149999999,"['3', '3', '2']","[0.6306574000000182, 0.8625145000000884]","[0.13660609999988083, 0.16088929999978063]",3,3,2,717,001,2024-10-02_14h41.03.579,Trial_mult,2023.2.1,59.87177859895493,2024-10-02 14h41.15.486119 -0400,
130,block4_trial10_attendright_leadtarget.wav,0,129,129,129,964.1747973000001,,,,,,,,,964.1748683000001,964.1913417000001,2.01598550000017,970.0463272000002,970.0463377000001,970.0630120000001,970.0630120000001,971.2313785000001,"['3', '2', '1']","[0.4730841999999029, 0.8162141999996493]","[0.14296599999988757, 0.17673640000020896]",3,2,1,717,001,2024-10-02_14h41.03.579,Trial_mult,2023.2.1,59.87177859895493,2024-10-02 14h41.15.486119 -0400,
131,block4_trial11_attendright_leadmasker.wav,0,130,130,130,971.2469271,,,,,,,,,971.2469780000001,971.2642931,2.017097399999784,977.1025792999999,977.1025906,977.1189653000001,977.1189653000001,978.7216974000003,"['3', '2', '3']","[0.6731330000002345, 1.1757799000001796]","[0.14380839999967066, 0.17692170000009355]",3,2,3,717,001,2024-10-02_14h41.03.579,Trial_mult,2023.2.1,59.87177859895493,2024-10-02 14h41.15.486119 -0400,
132,block4_trial12_attendleft_leadmasker.wav,0,131,131,131,978.7366580000003,,,,,,,,,978.7367315000001,978.7531961,2.016236999999819,984.5757378000003,984.5757480000002,984.5921619000001,984.5921619000001,985.6436503,"['1', '1', '2']","[0.510814400000072, 0.7517603000001145]","[0.1276850999997805, 0.15949649999993198]",1,1,2,717,001,2024-10-02_14h41.03.579,Trial_mult,2023.2.1,59.87177859895493,2024-10-02 14h41.15.486119 -0400,
133,block4_trial13_attendleft_leadmasker.wav,0,132,132,132,985.6590131000003,,,,,,,,,985.6590879999999,985.6753679000003,2.0164998000000196,991.5478440000002,991.5478547000002,991.5642992000003,991.5642992000003,992.6991542000001,"['1', '1', '2']","[0.6423340999999709, 0.8833240999997543]","[0.12865119999969465, 0.14458710000008068]",1,1,2,717,001,2024-10-02_14h41.03.579,Trial_mult,2023.2.1,59.87177859895493,2024-10-02 14h41.15.486119 -0400,
134,block4_trial14_attendleft_leadmasker.wav,0,133,133,133,992.7145940999999,,,,,,,,,992.7146682000002,992.7308972999999,2.016614000000118,998.5531205000002,998.5531313000001,998.5694533000001,998.5694533000001,1000.0379513000003,"['2', '2', '2']","[0.8461002999997618, 1.0939754999999423]","[0.12789270000030228, 0.11989529999982551]",2,2,2,717,001,2024-10-02_14h41.03.579,Trial_mult,2023.2.1,59.87177859895493,2024-10-02 14h41.15.486119 -0400,
135,block4_trial15_attendleft_leadtarget.wav,0,134,134,134,1000.0540664,,,,,,,,,1000.0541447999999,1000.0709029,2.0168580999998085,1005.8926483,1005.8926587999999,1005.9089183000001,1005.9089183000001,1007.0109194000001,"['1', '2', '2']","[0.5944491999998718, 0.8585093000001507]","[0.1195692000001145, 0.11127159999978176]",1,2,2,717,001,2024-10-02_14h41.03.579,Trial_mult,2023.2.1,59.87177859895493,2024-10-02 14h41.15.486119 -0400,
136,block4_trial16_attendright_leadtarget.wav,0,135,135,135,1007.0261137000002,,,,,,,,,1007.0261820999999,1007.0426218000002,2.0164138000000094,1012.8980798000002,1012.8980904,1012.9140809,1012.9140809,1014.4666901999999,"['2', '3', '1']","[0.5819879000000583, 1.1169169999998303]","[0.16791539999985616, 0.19281450000016775]",2,3,1,717,001,2024-10-02_14h41.03.579,Trial_mult,2023.2.1,59.87177859895493,2024-10-02 14h41.15.486119 -0400,
137,block4_trial17_attendleft_leadmasker.wav,0,136,136,136,1014.4824845000003,,,,,,,,,1014.4825578,1014.4986954000001,2.016824899999847,1020.3372785000001,1020.3372890999999,1020.3539661,1020.3539661,1021.5391943,"['2', '1', '3']","[0.5815243000001828, 0.9324096000000281]","[0.15953739999986283, 0.1612009999998918]",2,1,3,717,001,2024-10-02_14h41.03.579,Trial_mult,2023.2.1,59.87177859895493,2024-10-02 14h41.15.486119 -0400,
138,block4_trial18_attendright_leadmasker.wav,0,137,137,137,1021.5544380000001,,,,,,,,,1021.5545112,1021.5713009000001,2.0168538000002627,1027.3932071,1027.3932178,1027.4097626000002,1027.4097626000002,1028.7450165999999,"['2', '1', '3']","[0.8138340999998945, 1.0783627000000706]","[0.1528468999999859, 0.12682399999994232]",2,1,3,717,001,2024-10-02_14h41.03.579,Trial_mult,2023.2.1,59.87177859895493,2024-10-02 14h41.15.486119 -0400,
139,block4_trial19_attendright_leadtarget.wav,0,138,138,138,1028.7603784000003,,,,,,,,,1028.7604491000002,1028.7766988000003,2.016614899999695,1034.6316332000001,1034.6316455,1034.6485036,1034.6485036,1036.0168902,"['2', '1', '3']","[0.9190319999997882, 1.150586199999907]","[0.12051560000008976, 0.1513236999999208]",2,1,3,717,001,2024-10-02_14h41.03.579,Trial_mult,2023.2.1,59.87177859895493,2024-10-02 14h41.15.486119 -0400,
140,block4_trial20_attendleft_leadtarget.wav,0,139,139,139,1036.0329825,,,,,,,,,1036.033057,1036.0491778,2.016854399999829,1041.887855,1041.8878651,1041.9043947,1041.9043947,1042.9896899,"['2', '2', '3']","[0.6141372000001866, 0.8150908000002346]","[0.12068300000009913, 0.1358391999997366]",2,2,3,717,001,2024-10-02_14h41.03.579,Trial_mult,2023.2.1,59.87177859895493,2024-10-02 14h41.15.486119 -0400,
141,block4_trial21_attendleft_leadtarget.wav,0,140,140,140,1043.0051064,,,,,,,,,1043.0051839000002,1043.0214024000002,2.0165098000002217,1048.8430094,1048.8430194000002,1048.8600607000003,1048.8600607000003,1050.2623131999999,"['2', '2', '1']","[0.8122637999999824, 1.0511125000002721]","[0.11825460000000021, 0.1276557999999568]",2,2,1,717,001,2024-10-02_14h41.03.579,Trial_mult,2023.2.1,59.87177859895493,2024-10-02 14h41.15.486119 -0400,
142,block4_trial22_attendright_leadtarget.wav,0,141,141,141,1050.2777636,,,,,,,,,1050.2778471000001,1050.2943062,2.0162967000001117,1056.1326305000002,1056.1326411,1056.1489952000002,1056.1489952000002,1057.5347335000001,"['1', '2', '3']","[0.7859161000001222, 1.010359399999743]","[0.1437404999996943, 0.15179299999999785]",1,2,3,717,001,2024-10-02_14h41.03.579,Trial_mult,2023.2.1,59.87177859895493,2024-10-02 14h41.15.486119 -0400,
143,block4_trial23_attendleft_leadmasker.wav,0,142,142,142,1057.5500436000002,,,,,,,,,1057.5501175,1057.5671937000002,2.0168500999998287,1063.4380131000003,1063.4380234,1063.4548074,1063.4548074,1064.7741037,"['1', '2', '3']","[0.8486836000001858, 1.0727529000000686]","[0.1277420000001257, 0.13529349999998885]",1,2,3,717,001,2024-10-02_14h41.03.579,Trial_mult,2023.2.1,59.87177859895493,2024-10-02 14h41.15.486119 -0400,
144,block4_trial24_attendright_leadmasker.wav,0,143,143,143,1064.7892144000002,,,,,,,,,1064.7892879,1064.8060869,2.016420200000084,1070.6280456,1070.6280606999999,1070.6443752,1070.6443752,1072.1296092000002,"['1', '2', '2']","[0.6659926000002088, 1.1703839000001608]","[0.1372358999997232, 0.14447669999981372]",1,2,2,717,001,2024-10-02_14h41.03.579,Trial_mult,2023.2.1,59.87177859895493,2024-10-02 14h41.15.486119 -0400,
145,block4_trial25_attendleft_leadtarget.wav,0,144,144,144,1072.1453564000003,,,,,,,,,1072.1454297,1072.1617655,2.0165194999999585,1078.0172344000002,1078.0172446000001,1078.033703,1078.033703,1079.7029022000002,"['1', '1', '2']","[0.7340808999997535, 1.3098414000000957]","[0.11088370000015857, 0.18424899999990885]",1,1,2,717,001,2024-10-02_14h41.03.579,Trial_mult,2023.2.1,59.87177859895493,2024-10-02 14h41.15.486119 -0400,
146,block4_trial26_attendright_leadtarget.wav,0,145,145,145,1079.7176669,,,,,,,,,1079.7177337000003,1079.7342755,2.0165288000002874,1085.5890282999999,1085.5890391000003,1085.6061688,1085.6061688,1086.7249550000001,"['1', '2', '3']","[0.505101399999603, 0.817275399999744]","[0.12840300000016214, 0.14418960000011793]",1,2,3,717,001,2024-10-02_14h41.03.579,Trial_mult,2023.2.1,59.87177859895493,2024-10-02 14h41.15.486119 -0400,
147,block4_trial27_attendright_leadmasker.wav,0,146,146,146,1086.7402986000002,,,,,,,,,1086.7403716,1086.7571533999999,2.0161866999997073,1092.5954875000002,1092.5954982000003,1092.6118270000002,1092.6118270000002,1093.6639538,"['2', '2', '1']","[0.3875413999999182, 0.6357911000000058]","[0.13674989999981335, 0.16007549999994808]",2,2,1,717,001,2024-10-02_14h41.03.579,Trial_mult,2023.2.1,59.87177859895493,2024-10-02 14h41.15.486119 -0400,
148,block4_trial28_attendleft_leadtarget.wav,0,147,147,147,1093.6792752000001,,,,,,,,,1093.6793489000002,1093.6961649,2.016797200000383,1099.5675756,1099.5675862000003,1099.5840956000002,1099.5840956000002,1100.9695394,"['3', '2', '1']","[0.6481683999995766, 0.8711484999998902]","[0.11874250000028042, 0.080772799999977]",3,2,1,717,001,2024-10-02_14h41.03.579,Trial_mult,2023.2.1,59.87177859895493,2024-10-02 14h41.15.486119 -0400,
149,block4_trial29_attendright_leadmasker.wav,0,148,148,148,1100.9852785000003,,,,,,,,,1100.9853519000003,1101.0016080999999,2.016446300000098,1106.8560848000002,1106.8560957,1106.8728694000001,1106.8728694000001,1108.4754628,"['1', '2', '1']","[1.1180693000001156, 1.3586916999997811]","[0.11312469999984387, 0.135816700000305]",1,2,1,717,001,2024-10-02_14h41.03.579,Trial_mult,2023.2.1,59.87177859895493,2024-10-02 14h41.15.486119 -0400,
150,block4_trial30_attendright_leadtarget.wav,0,149,149,149,1108.4910315000002,,,,,,,,,1108.4911030000003,1108.5076844,2.0171175999998923,1114.3791646,1114.3791756,1114.3956316,1114.3956316,1115.7147016,"['3', '3', '2']","[0.7880049000000326, 1.0350562999997237]","[0.1355877999999393, 0.13703299999997398]",3,3,2,717,001,2024-10-02_14h41.03.579,Trial_mult,2023.2.1,59.87177859895493,2024-10-02 14h41.15.486119 -0400,
151,block4_trial31_attendleft_leadtarget.wav,0,150,150,150,1115.7304005,,,,,,,,,1115.7304748000001,1115.7468533,2.0164347999998427,1121.5683471000002,1121.5683585000002,1121.5854218,1121.5854218,1122.5207356,"['1', '1', '1']","[0.4459399000002122, 0.6704052999998567]","[0.11220119999961753, 0.11910299999999552]",1,1,1,717,001,2024-10-02_14h41.03.579,Trial_mult,2023.2.1,59.87177859895493,2024-10-02 14h41.15.486119 -0400,
152,block4_trial32_attendright_leadtarget.wav,0,151,151,151,1122.5354401,,,,,,,,,1122.5355134000001,1122.552338,2.01617589999978,1128.3906004,1128.3906124,1128.4070163000001,1128.4070163000001,1129.9760350000001,"['2', '2', '3']","[0.727676099999826, 0.9605368999996244]","[0.12054619999980787, 0.1676222000000962]",2,2,3,717,001,2024-10-02_14h41.03.579,Trial_mult,2023.2.1,59.87177859895493,2024-10-02 14h41.15.486119 -0400,
153,block4_trial33_attendright_leadmasker.wav,0,152,152,152,1129.9917732,,,,,,,,,1129.9918468,1130.0081308,2.0170453999999154,1135.8300327000002,1135.8300426,1135.8469215,1135.8469215,1139.9828851000002,"['3', '2']","[0.8086284999999407, 1.3452010999999402]","[0.11252050000030067, 0.1193198000000848]",3,2,NA,717,001,2024-10-02_14h41.03.579,Trial_mult,2023.2.1,59.87177859895493,2024-10-02 14h41.15.486119 -0400,
154,block4_trial34_attendleft_leadtarget.wav,0,153,153,153,1139.9996150000002,,,,,,,,,1139.9996914000003,1140.0165671,2.0239614000001893,1145.8543877000002,1145.8543978000002,1145.8713105000002,1145.8713105000002,1147.3738781000002,"['3', '3', '2']","[1.0404929999999695, 1.2731168000000253]","[0.15923099999963597, 0.16655079999964073]",3,3,2,717,001,2024-10-02_14h41.03.579,Trial_mult,2023.2.1,59.87177859895493,2024-10-02 14h41.15.486119 -0400,
155,block4_trial35_attendleft_leadmasker.wav,0,154,154,154,1147.3890390000001,,,,,,,,,1147.3891130000002,1147.4058413000002,2.016621100000066,1153.2445707000002,1153.2445813,1153.2608454,1153.2608454,1154.2789371,"['2', '3', '1']","[0.4579385000001821, 0.6901287000000593]","[0.160122699999647, 0.17671729999983654]",2,3,1,717,001,2024-10-02_14h41.03.579,Trial_mult,2023.2.1,59.87177859895493,2024-10-02 14h41.15.486119 -0400,
156,block4_trial36_attendright_leadtarget.wav,0,155,155,155,1154.2944624000002,,,,,,,,,1154.2945355000002,1154.3109081000002,2.0165414000002784,1160.1664500000002,1160.1664609,1160.1830766000003,1160.1830766000003,1161.4016132000002,"['3', '2', '3']","[0.43996259999994436, 0.6645414999998138]","[0.1455274999998437, 0.15134609999995519]",3,2,3,717,001,2024-10-02_14h41.03.579,Trial_mult,2023.2.1,59.87177859895493,2024-10-02 14h41.15.486119 -0400,
157,block4_trial37_attendleft_leadtarget.wav,0,156,156,156,1161.4169173,,,,,,,,,1161.4169937000001,1161.4336285,2.016743199999837,1167.2720758,1167.2720887,1167.2890095000002,1167.2890095000002,1168.2735043000002,"['1', '1', '1']","[0.5018166999998357, 0.7271043000000645]","[0.12904420000040773, 0.13488039999992907]",1,1,1,717,001,2024-10-02_14h41.03.579,Trial_mult,2023.2.1,59.87177859895493,2024-10-02 14h41.15.486119 -0400,
158,block4_trial38_attendleft_leadmasker.wav,0,157,157,157,1168.2888752,,,,,,,,,1168.2889437,1168.3056867,2.016568600000028,1174.1441728,1174.1441835,1174.1609918,1174.1609918,1175.1626294000002,"['1', '2', '3']","[0.5349496000003455, 0.7356396000000132]","[0.11931149999963964, 0.15110210000011648]",1,2,3,717,001,2024-10-02_14h41.03.579,Trial_mult,2023.2.1,59.87177859895493,2024-10-02 14h41.15.486119 -0400,
159,block4_trial39_attendleft_leadmasker.wav,0,158,158,158,1175.1777338000002,,,,,,,,,1175.1778082,1175.1945206999999,2.016870299999937,1181.0666807000002,1181.0666915000002,1181.0830223000003,1181.0830223000003,1182.0182586,"['2', '2', '3']","[0.4515676999999414, 0.684848399999737]","[0.12880540000014662, 0.15093419999993785]",2,2,3,717,001,2024-10-02_14h41.03.579,Trial_mult,2023.2.1,59.87177859895493,2024-10-02 14h41.15.486119 -0400,
160,block4_trial40_attendleft_leadtarget.wav,0,159,159,159,1182.0335291000001,,,,,,,,,1182.0335964,1182.0502173,2.016400900000008,1187.8883913,1187.8884021,1187.9058084000003,1187.9058084000003,1189.0075826000002,"['2', '2', '3']","[0.5903621000002204, 0.8137296999998398]","[0.1280954999997448, 0.16834660000040458]",2,2,3,717,001,2024-10-02_14h41.03.579,Trial_mult,2023.2.1,59.87177859895493,2024-10-02 14h41.15.486119 -0400,
161,block5_trial1_attendleft_leadtarget.wav,0,160,160,160,1189.0223567000003,,,,,,,,,1197.9627995,1197.9792387000002,2.018086499999754,1203.8178739,1203.817884,1203.8350348,1203.8350348,1204.9029909,"['3', '2', '1']","[0.0840211999998246, 0.6522551999996722]","[0.15990819999979067, 0.191519800000151]",3,2,1,717,001,2024-10-02_14h41.03.579,Trial_mult,2023.2.1,59.87177859895493,2024-10-02 14h41.15.486119 -0400,
162,block5_trial2_attendleft_leadmasker.wav,0,161,161,161,1204.9188196,,,,,,,,,1204.9188942,1204.9353234,2.0165327999998226,1210.773521,1210.7735314000001,1210.7902228000003,1210.7902228000003,1211.9422428000003,"['2', '2', '3']","[0.44072689999984505, 0.6964613999998619]","[0.12757569999985208, 0.1609520000001794]",2,2,3,717,001,2024-10-02_14h41.03.579,Trial_mult,2023.2.1,59.87177859895493,2024-10-02 14h41.15.486119 -0400,
163,block5_trial3_attendleft_leadtarget.wav,0,162,162,162,1211.9573107,,,,,,,,,1211.9573784,1211.974025,2.01706379999996,1217.8456946000001,1217.8457053000002,1217.8622611,1217.8622611,1219.2650439,"['3', '3', '2']","[0.5465330000001813, 0.9929165000003195]","[0.17479659999980868, 0.1758497000000716]",3,3,2,717,001,2024-10-02_14h41.03.579,Trial_mult,2023.2.1,59.87177859895493,2024-10-02 14h41.15.486119 -0400,
164,block5_trial4_attendleft_leadtarget.wav,0,163,163,163,1219.2801363000003,,,,,,,,,1219.2802105,1219.2965285,2.016538600000331,1225.1352354,1225.1352469000003,1225.1517297,1225.1517297,1226.3537892,"['2', '1', '3']","[0.23235780000004524, 0.7592892000002394]","[0.15088860000014392, 0.16857029999982842]",2,1,3,717,001,2024-10-02_14h41.03.579,Trial_mult,2023.2.1,59.87177859895493,2024-10-02 14h41.15.486119 -0400,
165,block5_trial5_attendleft_leadmasker.wav,0,164,164,164,1226.3691574,,,,,,,,,1226.3692323,1226.385522,2.0163821000001008,1232.2411669000003,1232.2411766,1232.2580299,1232.2580299,1233.5266491000002,"['2', '2', '1']","[0.6935073999998167, 0.9819726000000628]","[0.15144410000038988, 0.14397779999990235]",2,2,1,717,001,2024-10-02_14h41.03.579,Trial_mult,2023.2.1,59.87177859895493,2024-10-02 14h41.15.486119 -0400,
166,block5_trial6_attendleft_leadtarget.wav,0,165,165,165,1233.5412536,,,,,,,,,1233.5413263,1233.5582379000002,2.0164002999999866,1239.3960474,1239.3960574000002,1239.4131783000003,1239.4131783000003,1240.615299,"['1', '2', '3']","[0.40211090000002514, 0.8903964999999516]","[0.1357543999997688, 0.1766232999998465]",1,2,3,717,001,2024-10-02_14h41.03.579,Trial_mult,2023.2.1,59.87177859895493,2024-10-02 14h41.15.486119 -0400,
167,block5_trial7_attendright_leadmasker.wav,0,166,166,166,1240.6303013000002,,,,,,,,,1240.6303709,1240.6470341,2.0163110000003144,1246.4857024000003,1246.4857143,1246.5023107000002,1246.5023107000002,1247.9544503000002,"['1', '2', '2']","[0.7776122000000214, 1.2252749999997832]","[0.1278480999999374, 0.14425389999996696]",1,2,2,717,001,2024-10-02_14h41.03.579,Trial_mult,2023.2.1,59.87177859895493,2024-10-02 14h41.15.486119 -0400,
168,block5_trial8_attendright_leadtarget.wav,0,167,167,167,1247.9700907000001,,,,,,,,,1247.9701653000002,1247.9865155000002,2.0169622999997046,1253.8244936,1253.8245047,1253.8412646000002,1253.8412646000002,1254.7761915,"['2', '3', '1']","[0.4853896999998142, 0.6865096999999878]","[0.14533080000001064, 0.1518303999996533]",2,3,1,717,001,2024-10-02_14h41.03.579,Trial_mult,2023.2.1,59.87177859895493,2024-10-02 14h41.15.486119 -0400,
169,block5_trial9_attendleft_leadmasker.wav,0,168,168,168,1254.7916751000002,,,,,,,,,1254.7917479000002,1254.8084157000003,2.016670399999839,1260.6633448000002,1260.6633552000003,1260.6801208000002,1260.6801208000002,1261.9823925,"['3', '3', '2']","[0.8393326999998862, 1.0644589999997152]","[0.11113260000001901, 0.13412879999987126]",3,3,2,717,001,2024-10-02_14h41.03.579,Trial_mult,2023.2.1,59.87177859895493,2024-10-02 14h41.15.486119 -0400,
170,block5_trial10_attendleft_leadtarget.wav,0,169,169,169,1261.9978115,,,,,,,,,1261.9978856000002,1262.0142589000002,2.016765999999734,1267.8534357000003,1267.8534465000002,1267.8696663,1267.8696663,1268.7049498000001,"['2', '2', '1']","[0.5132838999998057, 0.7544378999996297]","[0.14494379999996454, 0.0237675000003037]",2,2,1,717,001,2024-10-02_14h41.03.579,Trial_mult,2023.2.1,59.87177859895493,2024-10-02 14h41.15.486119 -0400,
171,block5_trial11_attendleft_leadtarget.wav,0,170,170,170,1268.7199197,,,,,,,,,1268.7199931,1268.7366183,2.0159370999999737,1274.5919106000001,1274.5919211,1274.6084516,1274.6084516,1275.7266861000003,"['2', '2', '2']","[0.4713728000001538, 0.7825236000003315]","[0.11181940000005852, 0.0480808999996043]",2,2,2,717,001,2024-10-02_14h41.03.579,Trial_mult,2023.2.1,59.87177859895493,2024-10-02 14h41.15.486119 -0400,
172,block5_trial12_attendleft_leadmasker.wav,0,171,171,171,1275.7423315,,,,,,,,,1275.7424056,1275.7591115,2.016498099999808,1281.5971005000001,1281.5971111,1281.6134785,1281.6134785,1282.5319956000003,"['3', '2', '1']","[0.4732066000001396, 0.6986925000001065]","[0.13728979999996227, 0.1592209999998886]",3,2,1,717,001,2024-10-02_14h41.03.579,Trial_mult,2023.2.1,59.87177859895493,2024-10-02 14h41.15.486119 -0400,
173,block5_trial13_attendleft_leadmasker.wav,0,172,172,172,1282.5476703,,,,,,,,,1282.5477437,1282.5641864,2.016995699999825,1288.4356106,1288.4356214,1288.4526155000003,1288.4526155000003,1289.4378265,"['1', '1', '2']","[0.5309597000000394, 0.7386042000002817]","[0.11130350000030376, 0.1276623999997355]",1,1,2,717,001,2024-10-02_14h41.03.579,Trial_mult,2023.2.1,59.87177859895493,2024-10-02 14h41.15.486119 -0400,
174,block5_trial14_attendleft_leadmasker.wav,0,173,173,173,1289.4533644000003,,,,,,,,,1289.4534457,1289.4698158,2.016522999999779,1295.3078503000002,1295.3078611,1295.3243236000003,1295.3243236000003,1296.6939559000002,"['1', '2', '1']","[0.8349640999999792, 1.0833769999999276]","[0.15204439999979513, 0.13553790000014487]",1,2,1,717,001,2024-10-02_14h41.03.579,Trial_mult,2023.2.1,59.87177859895493,2024-10-02 14h41.15.486119 -0400,
175,block5_trial15_attendright_leadmasker.wav,0,174,174,174,1296.7090988,,,,,,,,,1296.7091813000002,1296.7254511,2.0160673999998835,1302.5967601000002,1302.5967703000001,1302.6134676000001,1302.6134676000001,1303.6490207000002,"['3', '3', '2']","[0.586277599999903, 0.8025817999996434]","[0.11123559999987265, 0.14264920000005077]",3,3,2,717,001,2024-10-02_14h41.03.579,Trial_mult,2023.2.1,59.87177859895493,2024-10-02 14h41.15.486119 -0400,
176,block5_trial16_attendright_leadtarget.wav,0,175,175,175,1303.6643349,,,,,,,,,1303.6644019999999,1303.6812689000003,2.0170608999997057,1309.5024969,1309.5025073000002,1309.5189666,1309.5189666,1311.0881841,"['2', '1', '2']","[0.568612099999882, 1.0321892000001753]","[0.1596345000002657, 0.15949300000011135]",2,1,2,717,001,2024-10-02_14h41.03.579,Trial_mult,2023.2.1,59.87177859895493,2024-10-02 14h41.15.486119 -0400,
177,block5_trial17_attendleft_leadmasker.wav,0,176,176,176,1311.1039917000003,,,,,,,,,1311.1040666,1311.1203882,2.016614000000118,1316.9417663,1316.9417767,1316.9582756,1316.9582756,1318.2772584,"['1', '2', '3']","[0.5205571999999847, 0.9693270000002485]","[0.1439857000000302, 0.19125399999984438]",1,2,3,717,001,2024-10-02_14h41.03.579,Trial_mult,2023.2.1,59.87177859895493,2024-10-02 14h41.15.486119 -0400,
178,block5_trial18_attendright_leadmasker.wav,0,177,177,177,1318.2926705,,,,,,,,,1318.2927481000002,1318.3092996999999,2.016987599999993,1324.1306800000002,1324.1306902000001,1324.1472059000002,1324.1472059000002,1325.6165937,"['1', '3', '2']","[0.2757107999996151, 0.9554492999996]","[0.12865850000025603, 0.18543470000031448]",1,3,2,717,001,2024-10-02_14h41.03.579,Trial_mult,2023.2.1,59.87177859895493,2024-10-02 14h41.15.486119 -0400,
179,block5_trial19_attendright_leadtarget.wav,0,178,178,178,1325.6322982000002,,,,,,,,,1325.6323771000002,1325.6490114000003,2.0168580999998085,1331.4705281000001,1331.470539,1331.4871136000002,1331.4871136000002,1332.6062195,"['1', '2', '3']","[0.4404557000002569, 0.743775800000094]","[0.14335840000012467, 0.1766155999998773]",1,2,3,717,001,2024-10-02_14h41.03.579,Trial_mult,2023.2.1,59.87177859895493,2024-10-02 14h41.15.486119 -0400,
180,block5_trial20_attendright_leadtarget.wav,0,179,179,179,1332.6209954,,,,,,,,,1332.6210729,1332.6379741,2.016615499999716,1338.4930905,1338.4931013,1338.5094786,1338.5094786,1339.7286840000002,"['1', '3', '3']","[0.40164839999988544, 0.7381873999997879]","[0.15295490000016798, 0.2002096999999594]",1,3,3,717,001,2024-10-02_14h41.03.579,Trial_mult,2023.2.1,59.87177859895493,2024-10-02 14h41.15.486119 -0400,
181,block5_trial21_attendleft_leadtarget.wav,0,180,180,180,1339.7433366999999,,,,,,,,,1339.7434103,1339.7604646,2.0164279000000533,1345.5988451000003,1345.5988559000002,1345.6154655,1345.6154655,1346.850879,"['3', '3', '1']","[0.46336429999973916, 0.8969652000000679]","[0.21013480000010532, 0.19189809999988938]",3,3,1,717,001,2024-10-02_14h41.03.579,Trial_mult,2023.2.1,59.87177859895493,2024-10-02 14h41.15.486119 -0400,
182,block5_trial22_attendright_leadtarget.wav,0,181,181,181,1346.8663072,,,,,,,,,1346.8663798000002,1346.8829524000002,2.0166065000003073,1352.7542743,1352.7542844,1352.770979,1352.770979,1353.8228844999999,"['2', '2', '3']","[0.42927240000017264, 0.8132924000001367]","[0.17556820000027074, 0.151968399999987]",2,2,3,717,001,2024-10-02_14h41.03.579,Trial_mult,2023.2.1,59.87177859895493,2024-10-02 14h41.15.486119 -0400,
183,block5_trial23_attendleft_leadmasker.wav,0,182,182,182,1353.8380172000002,,,,,,,,,1353.8380930000003,1353.8552152000002,2.01691800000026,1359.7103425,1359.7103540000003,1359.726717,1359.726717,1363.8294352000003,"['3', '3']","[0.9851000999997268, 1.38396130000001]","[0.20702080000000933, 0.18535489999976562]",3,3,NA,717,001,2024-10-02_14h41.03.579,Trial_mult,2023.2.1,59.87177859895493,2024-10-02 14h41.15.486119 -0400,
184,block5_trial24_attendleft_leadtarget.wav,0,183,183,183,1363.8465647000003,,,,,,,,,1363.8466391000002,1363.8626951,2.0239802999999483,1369.7019551000003,1369.7019659000002,1369.7179856000002,1369.7179856000002,1370.5031527,"['2', '2', '3']","[0.3457911000000422, 0.5529776000003039]","[0.1280306000003293, 0.1447214999998323]",2,2,3,717,001,2024-10-02_14h41.03.579,Trial_mult,2023.2.1,59.87177859895493,2024-10-02 14h41.15.486119 -0400,
185,block5_trial25_attendright_leadmasker.wav,0,184,184,184,1370.5186871,,,,,,,,,1370.5187649,1370.5351938,2.0164936000001035,1376.390066,1376.3900762000003,1376.4063876999999,1376.4063876999999,1377.775227,"['2', '3', '3']","[0.6964136999999937, 1.0021848000001228]","[0.1523179999999229, 0.1910514000001058]",2,3,3,717,001,2024-10-02_14h41.03.579,Trial_mult,2023.2.1,59.87177859895493,2024-10-02 14h41.15.486119 -0400,
186,block5_trial26_attendleft_leadmasker.wav,0,185,185,185,1377.7908055000003,,,,,,,,,1377.7908772,1377.8077953000002,2.0171187999999347,1383.6791545,1383.6791655000002,1383.6958524000001,1383.6958524000001,1385.1141550000002,"['2', '1', '1']","[0.5759914999998728, 0.9755700000000616]","[0.14319539999996778, 0.16035210000018196]",2,1,1,717,001,2024-10-02_14h41.03.579,Trial_mult,2023.2.1,59.87177859895493,2024-10-02 14h41.15.486119 -0400,
187,block5_trial27_attendright_leadmasker.wav,0,186,186,186,1385.1300867,,,,,,,,,1385.1301647999999,1385.1465078,2.018035999999938,1391.0180928,1391.0181033,1391.0344496000002,1391.0344496000002,1392.1865983000002,"['2', '2', '1']","[0.4610179999999673, 0.8367690000000039]","[0.18393939999987197, 0.16914219999989655]",2,2,1,717,001,2024-10-02_14h41.03.579,Trial_mult,2023.2.1,59.87177859895493,2024-10-02 14h41.15.486119 -0400,
188,block5_trial28_attendright_leadmasker.wav,0,187,187,187,1392.2024752000002,,,,,,,,,1392.2025519,1392.2190939000002,2.017467399999987,1398.0741856,1398.0741960999999,1398.0912156,1398.0912156,1399.3929935,"['3', '3', '2']","[0.6449383999997735, 0.996014699999705]","[0.17623630000025514, 0.191893500000333]",3,3,2,717,001,2024-10-02_14h41.03.579,Trial_mult,2023.2.1,59.87177859895493,2024-10-02 14h41.15.486119 -0400,
189,block5_trial29_attendright_leadmasker.wav,0,188,188,188,1399.4081587,,,,,,,,,1399.4082502,1399.4248888000002,2.01647580000008,1405.2630529000003,1405.2630634000002,1405.2796463,1405.2796463,1406.7491058,"['2', '3', '1']","[0.6312326000002031, 1.0242496000000756]","[0.16116569999985586, 0.1749619000001985]",2,3,1,717,001,2024-10-02_14h41.03.579,Trial_mult,2023.2.1,59.87177859895493,2024-10-02 14h41.15.486119 -0400,
190,block5_trial30_attendright_leadmasker.wav,0,189,189,189,1406.7643745,,,,,,,,,1406.7644477,1406.7812531,2.0166000000003805,1412.6024575000001,1412.6024683,1412.6190252000001,1412.6190252000001,1413.7210247000003,"['1', '2', '3']","[0.532161300000098, 0.8139424000000872]","[0.16036540000004607, 0.15094379999982266]",1,2,3,717,001,2024-10-02_14h41.03.579,Trial_mult,2023.2.1,59.87177859895493,2024-10-02 14h41.15.486119 -0400,
191,block5_trial31_attendleft_leadtarget.wav,0,190,190,190,1413.7363623,,,,,,,,,1413.7364364,1413.7533444,2.016669699999966,1419.6245705000001,1419.6245812000002,1419.6412559999999,1419.6412559999999,1420.9441998000002,"['2', '2', '3']","[0.47819829999980357, 0.8943757999995796]","[0.18492620000006355, 0.20083230000000185]",2,2,3,717,001,2024-10-02_14h41.03.579,Trial_mult,2023.2.1,59.87177859895493,2024-10-02 14h41.15.486119 -0400,
192,block5_trial32_attendright_leadtarget.wav,0,191,191,191,1420.9586023000002,,,,,,,,,1420.9586817,1420.9761044000002,2.0157131000000845,1426.8136736000001,1426.8136839,1426.8301567000003,1426.8301567000003,1428.2660138,"['2', '3', '1']","[0.7373491999996986, 1.168742999999722]","[0.15225110000028508, 0.16802330000018628]",2,3,1,717,001,2024-10-02_14h41.03.579,Trial_mult,2023.2.1,59.87177859895493,2024-10-02 14h41.15.486119 -0400,
193,block5_trial33_attendright_leadmasker.wav,0,192,192,192,1428.2817899000001,,,,,,,,,1428.2818663000003,1428.2983434000002,2.01648060000025,1434.1532345,1434.1532448000003,1434.1699145000002,1434.1699145000002,1435.404657,"['2', '2', '1']","[0.7819140000001426, 1.0050768000000971]","[0.10386879999987286, 0.14455150000003414]",2,2,1,717,001,2024-10-02_14h41.03.579,Trial_mult,2023.2.1,59.87177859895493,2024-10-02 14h41.15.486119 -0400,
194,block5_trial34_attendright_leadtarget.wav,0,193,193,193,1435.4201465,,,,,,,,,1435.4202023000003,1435.4367709000003,2.016751000000113,1441.2587484,1441.2587597000002,1441.2753992000003,1441.2753992000003,1442.4772487,"['2', '2', '3']","[0.5796901999997317, 0.7960762999996405]","[0.10397139999986393, 0.07284590000017488]",2,2,3,717,001,2024-10-02_14h41.03.579,Trial_mult,2023.2.1,59.87177859895493,2024-10-02 14h41.15.486119 -0400,
195,block5_trial35_attendleft_leadtarget.wav,0,194,194,194,1442.4924417000002,,,,,,,,,1442.4924986,1442.5093815999999,2.016865300000063,1448.3642882,1448.3642986,1448.3810862,1448.3810862,1449.6496113000003,"['2', '3', '1']","[0.6985616000001755, 0.9705884999998489]","[0.14314839999997275, 0.14369100000021717]",2,3,1,717,001,2024-10-02_14h41.03.579,Trial_mult,2023.2.1,59.87177859895493,2024-10-02 14h41.15.486119 -0400,
196,block5_trial36_attendleft_leadmasker.wav,0,195,195,195,1449.6649603,,,,,,,,,1449.6650247000002,1449.6816162,2.0164866999998594,1455.52097,1455.5209812000003,1455.5369166,1455.5369166,1456.905725,"['1', '1', '1']","[0.8781850999998824, 1.1269766000000345]","[0.12909540000009656, 0.11160569999992731]",1,1,1,717,001,2024-10-02_14h41.03.579,Trial_mult,2023.2.1,59.87177859895493,2024-10-02 14h41.15.486119 -0400,
197,block5_trial37_attendright_leadtarget.wav,0,196,196,196,1456.9211926000003,,,,,,,,,1456.9212641,1456.9381203000003,2.016428700000233,1462.7592988000001,1462.7593096,1462.7762440000001,1462.7762440000001,1464.1120025,"['2', '3', '1']","[0.8226541999997607, 1.0479229999996278]","[0.13722649999999703, 0.1347856000002139]",2,3,1,717,001,2024-10-02_14h41.03.579,Trial_mult,2023.2.1,59.87177859895493,2024-10-02 14h41.15.486119 -0400,
198,block5_trial38_attendright_leadtarget.wav,0,197,197,197,1464.1271544,,,,,,,,,1464.1272329000003,1464.1440418000002,2.0161415000002307,1469.9988137999999,1469.9988245,1470.0151286999999,1470.0151286999999,1471.0670903999999,"['1', '2', '2']","[0.5453680000000531, 0.8086902000000009]","[0.13555760000008377, 0.1205973000000995]",1,2,2,717,001,2024-10-02_14h41.03.579,Trial_mult,2023.2.1,59.87177859895493,2024-10-02 14h41.15.486119 -0400,
199,block5_trial39_attendright_leadmasker.wav,0,198,198,198,1471.0829328,,,,,,,,,1471.0830085000002,1471.0990214000003,2.016587300000083,1476.9210807,1476.9210928000002,1476.9373934,1476.9373934,1477.9727034000002,"['2', '1', '3']","[0.5334491999997226, 0.7987610000000132]","[0.1446779000002607, 0.14292719999957626]",2,1,3,717,001,2024-10-02_14h41.03.579,Trial_mult,2023.2.1,59.87177859895493,2024-10-02 14h41.15.486119 -0400,
200,block5_trial40_attendright_leadtarget.wav,0,199,199,199,1477.9878841,,,,,,,,,1477.9879574000001,1478.004477,2.0168688000003385,1483.8435159,1483.8435265000003,1483.8599622000002,1483.8599622000002,1484.9113859,"['2', '2', '2']","[0.6201960999997027, 0.8124447999998665]","[0.06481789999998, 0.11123499999985142]",2,2,2,717,001,2024-10-02_14h41.03.579,Trial_mult,2023.2.1,59.87177859895493,2024-10-02 14h41.15.486119 -0400,
201,block6_trial1_attendright_leadmasker.wav,0,200,200,200,1484.9267800000002,,,,,,,,,1492.1494204,1492.1661326000003,2.0181436000002577,1498.0043137000002,1498.0043237,1498.0219876,1498.0219876,1498.6230628000003,"['3', '2', '1']","[0.11316889999989144, 0.3378465999999207]","[0.16065370000023904, 0.19211679999989428]",3,2,1,717,001,2024-10-02_14h41.03.579,Trial_mult,2023.2.1,59.87177859895493,2024-10-02 14h41.15.486119 -0400,
202,block6_trial2_attendright_leadmasker.wav,0,201,201,201,1498.6377972,,,,,,,,,1498.6378667,1498.6550390000002,2.016220599999997,1504.5097031,1504.5097135,1504.5263236,1504.5263236,1505.6287356000003,"['2', '2', '2']","[0.6413762000001952, 0.8491128000000572]","[0.08720979999998235, 0.08885689999988244]",2,2,2,717,001,2024-10-02_14h41.03.579,Trial_mult,2023.2.1,59.87177859895493,2024-10-02 14h41.15.486119 -0400,
203,block6_trial3_attendright_leadmasker.wav,0,202,202,202,1505.6433866000002,,,,,,,,,1505.6434592,1505.6603189000002,2.015998700000182,1511.5155573000002,1511.5155679,1511.5317205000001,1511.5317205000001,1512.5170963,"['2', '2', '3']","[0.5723458000002211, 0.7473740000000362]","[0.10273180000012871, 0.0965661000000182]",2,2,3,717,001,2024-10-02_14h41.03.579,Trial_mult,2023.2.1,59.87177859895493,2024-10-02 14h41.15.486119 -0400,
204,block6_trial4_attendright_leadmasker.wav,0,203,203,203,1512.5322412,,,,,,,,,1512.5323088,1512.5489642000002,2.01662639999995,1518.3874157,1518.3874265,1518.4040100000002,1518.4040100000002,1519.4394486,"['2', '2', '3']","[0.41081819999999425, 0.659693800000241]","[0.13639940000030037, 0.1602274000001671]",2,2,3,717,001,2024-10-02_14h41.03.579,Trial_mult,2023.2.1,59.87177859895493,2024-10-02 14h41.15.486119 -0400,
205,block6_trial5_attendleft_leadmasker.wav,0,204,204,204,1519.4544658,,,,,,,,,1519.4545392,1519.4713477999999,2.016710200000034,1525.3099436000002,1525.3099540000003,1525.3261422,1525.3261422,1526.2116029,"['3', '3', '1']","[0.37788899999986825, 0.601485700000012]","[0.1350996999999552, 0.1765783000000738]",3,3,1,717,001,2024-10-02_14h41.03.579,Trial_mult,2023.2.1,59.87177859895493,2024-10-02 14h41.15.486119 -0400,
206,block6_trial6_attendleft_leadtarget.wav,0,205,205,205,1526.2268992,,,,,,,,,1526.2269754,1526.2436039,2.0161714999999276,1532.0985758000002,1532.0985862000002,1532.1156925,1532.1156925,1533.3336983,"['2', '2', '1']","[0.6443535000003067, 0.851789700000154]","[0.10389739999982339, 0.13677330000018628]",2,2,1,717,001,2024-10-02_14h41.03.579,Trial_mult,2023.2.1,59.87177859895493,2024-10-02 14h41.15.486119 -0400,
207,block6_trial7_attendright_leadmasker.wav,0,206,206,206,1533.3492790999999,,,,,,,,,1533.3493525,1533.3658763000003,2.0167977000000974,1539.2050375,1539.2050481,1539.2211439000002,1539.2211439000002,1540.2565924,"['2', '2', '3']","[0.6113822000002074, 0.8267227999999704]","[0.14337440000008428, 0.15123300000004747]",2,2,3,717,001,2024-10-02_14h41.03.579,Trial_mult,2023.2.1,59.87177859895493,2024-10-02 14h41.15.486119 -0400,
208,block6_trial8_attendleft_leadmasker.wav,0,207,207,207,1540.2713625000001,,,,,,,,,1540.2714444000003,1540.2881234000001,2.0163437999999587,1546.1265675,1546.1265790000002,1546.1427844,1546.1427844,1547.3289147,"['2', '1', '1']","[0.5858119999998053, 0.89707959999987]","[0.12734850000015285, 0.11234460000014224]",2,1,1,717,001,2024-10-02_14h41.03.579,Trial_mult,2023.2.1,59.87177859895493,2024-10-02 14h41.15.486119 -0400,
209,block6_trial9_attendright_leadtarget.wav,0,208,208,208,1547.3434750000001,,,,,,,,,1547.3435418,1547.3602553,2.0160643999997774,1553.2318682,1553.2318786,1553.2487897,1553.2487897,1554.2506348000002,"['2', '3', '1']","[0.4153510000001006, 0.6949395999999979]","[0.18469240000013087, 0.1360620000000381]",2,3,1,717,001,2024-10-02_14h41.03.579,Trial_mult,2023.2.1,59.87177859895493,2024-10-02 14h41.15.486119 -0400,
210,block6_trial10_attendright_leadtarget.wav,0,209,209,209,1554.2658405000002,,,,,,,,,1554.2659144,1554.2825167,2.016800400000193,1560.1379982000003,1560.1380096000003,1560.1540147,1560.1540147,1561.4730984000003,"['2', '3', '1']","[0.6858154999999897, 0.9249242000000777]","[0.11985150000009526, 0.17847140000003492]",2,3,1,717,001,2024-10-02_14h41.03.579,Trial_mult,2023.2.1,59.87177859895493,2024-10-02 14h41.15.486119 -0400,
211,block6_trial11_attendright_leadmasker.wav,0,210,210,210,1561.4883359,,,,,,,,,1561.4884052000002,1561.504973,2.0166018999998414,1567.344078,1567.3440888,1567.3609054000003,1567.3609054000003,1568.6456940000003,"['1', '1', '2']","[0.7027181999997083, 0.9343665999999757]","[0.10537650000014764, 0.09682489999977406]",1,1,2,717,001,2024-10-02_14h41.03.579,Trial_mult,2023.2.1,59.87177859895493,2024-10-02 14h41.15.486119 -0400,
212,block6_trial12_attendleft_leadmasker.wav,0,211,211,211,1568.6609076,,,,,,,,,1568.660981,1568.6776191,2.016482399999859,1574.532549,1574.5325594,1574.5490179000003,1574.5490179000003,1575.651139,"['1', '3', '2']","[0.6597302000000127, 0.8507070999999087]","[0.1345693999996911, 0.15926029999991442]",1,3,2,717,001,2024-10-02_14h41.03.579,Trial_mult,2023.2.1,59.87177859895493,2024-10-02 14h41.15.486119 -0400,
213,block6_trial13_attendleft_leadtarget.wav,0,212,212,212,1575.6663683000002,,,,,,,,,1575.6664417000002,1575.6831926,2.016544199999771,1581.50531,1581.5053213,1581.522196,1581.522196,1583.0239190000002,"['1', '2', '1']","[0.7977632000001904, 1.0689480999999432]","[0.13696509999999762, 0.1200714000001426]",1,2,1,717,001,2024-10-02_14h41.03.579,Trial_mult,2023.2.1,59.87177859895493,2024-10-02 14h41.15.486119 -0400,
214,block6_trial14_attendright_leadtarget.wav,0,213,213,213,1583.0392712000003,,,,,,,,,1583.0393447000001,1583.0554986000002,2.016274599999633,1588.8938789,1588.8938894000003,1588.9106222,1588.9106222,1590.2795107000002,"['1', '1', '3']","[0.6483548000001065, 0.9134758000000147]","[0.1121262999999999, 0.15202170000020487]",1,1,3,717,001,2024-10-02_14h41.03.579,Trial_mult,2023.2.1,59.87177859895493,2024-10-02 14h41.15.486119 -0400,
215,block6_trial15_attendleft_leadtarget.wav,0,214,214,214,1590.2946718000003,,,,,,,,,1590.2947376000002,1590.3121864,2.0170600999999806,1596.1333711000002,1596.1333813,1596.1500261,1596.1500261,1597.1848756,"['2', '1', '3']","[0.5220405999998547, 0.769650300000194]","[0.1609081999999944, 0.1608579999997346]",2,1,3,717,001,2024-10-02_14h41.03.579,Trial_mult,2023.2.1,59.87177859895493,2024-10-02 14h41.15.486119 -0400,
216,block6_trial16_attendright_leadtarget.wav,0,215,215,215,1597.2006995000002,,,,,,,,,1597.2007759000003,1597.2169618000003,2.017133400000148,1603.0556206,1603.0556310000002,1603.0721032000001,1603.0721032000001,1604.2577678000002,"['2', '3', '1']","[0.6471788000003471, 0.935550400000011]","[0.12009209999996528, 0.13661510000019916]",2,3,1,717,001,2024-10-02_14h41.03.579,Trial_mult,2023.2.1,59.87177859895493,2024-10-02 14h41.15.486119 -0400,
217,block6_trial17_attendright_leadmasker.wav,0,216,216,216,1604.2727713,,,,,,,,,1604.2728451000003,1604.2898859000002,2.0161779999998544,1610.1115836,1610.111594,1610.1277846000003,1610.1277846000003,1611.7805349,"['2', '2', '2']","[1.0953882000003432, 1.3600808000001052]","[0.12064079999981914, 0.12012910000021293]",2,2,2,717,001,2024-10-02_14h41.03.579,Trial_mult,2023.2.1,59.87177859895493,2024-10-02 14h41.15.486119 -0400,
218,block6_trial18_attendleft_leadtarget.wav,0,217,217,217,1611.7954706,,,,,,,,,1611.7955375000001,1611.812508,2.0167271000000255,1617.684674,1617.6846844000002,1617.7013378000001,1617.7013378000001,1619.5195366000003,"['2', '1', '3']","[0.7387093000002096, 1.2426201000002948]","[0.16118569999980537, 0.15216359999976703]",2,1,3,717,001,2024-10-02_14h41.03.579,Trial_mult,2023.2.1,59.87177859895493,2024-10-02 14h41.15.486119 -0400,
219,block6_trial19_attendleft_leadmasker.wav,0,218,218,218,1619.5354051,,,,,,,,,1619.5354837,1619.5518786000002,2.017284600000039,1625.3903924,1625.3904027000003,1625.4069344,1625.4069344,1626.8755464,"['1', '1', '2']","[0.850099499999942, 1.1922844999999143]","[0.1589392000000771, 0.1609029000001101]",1,1,2,717,001,2024-10-02_14h41.03.579,Trial_mult,2023.2.1,59.87177859895493,2024-10-02 14h41.15.486119 -0400,
220,block6_trial20_attendleft_leadtarget.wav,0,219,219,219,1626.8911846,,,,,,,,,1626.8912543000001,1626.9077387000002,2.016610600000149,1632.7794597000002,1632.7794699,1632.7955259,1632.7955259,1633.9148378,"['2', '1', '1']","[0.42888399999992544, 0.8047200999999404]","[0.15897649999988062, 0.15091519999987213]",2,1,1,717,001,2024-10-02_14h41.03.579,Trial_mult,2023.2.1,59.87177859895493,2024-10-02 14h41.15.486119 -0400,
221,block6_trial21_attendleft_leadmasker.wav,0,220,220,220,1633.9302819,,,,,,,,,1633.9303556,1633.9465476999999,2.0160694999999578,1639.7858702000003,1639.7858799,1639.8020698999999,1639.8020698999999,1640.9869181,"['2', '3', '3']","[0.5577342999999928, 0.9103675999999723]","[0.16000160000021424, 0.15187479999985953]",2,3,3,717,001,2024-10-02_14h41.03.579,Trial_mult,2023.2.1,59.87177859895493,2024-10-02 14h41.15.486119 -0400,
222,block6_trial22_attendleft_leadmasker.wav,0,221,221,221,1641.0022938000002,,,,,,,,,1641.0023664,1641.0190045,2.017062099999748,1646.8911887,1646.8911990000001,1646.9074363,1646.9074363,1648.1095226000002,"['2', '2', '1']","[0.7487695999998323, 0.9648107999996682]","[0.12045360000001892, 0.1280308000000332]",2,2,1,717,001,2024-10-02_14h41.03.579,Trial_mult,2023.2.1,59.87177859895493,2024-10-02 14h41.15.486119 -0400,
223,block6_trial23_attendright_leadmasker.wav,0,222,222,222,1648.1251234000001,,,,,,,,,1648.1251956,1648.1414035000003,2.0165336000000025,1653.9965253,1653.996536,1654.0136439000003,1654.0136439000003,1655.4985399000002,"['2', '2', '3']","[0.9776585000004161, 1.22598650000009]","[0.10477409999975862, 0.14360510000005888]",2,2,3,717,001,2024-10-02_14h41.03.579,Trial_mult,2023.2.1,59.87177859895493,2024-10-02 14h41.15.486119 -0400,
224,block6_trial24_attendleft_leadtarget.wav,0,223,223,223,1655.5143842000002,,,,,,,,,1655.5144573000002,1655.5308044000003,2.0171038000003136,1661.3855851000003,1661.3855957,1661.4020985000002,1661.4020985000002,1662.5882578,"['1', '2', '2']","[0.5102814000001672, 0.9341694000004281]","[0.11130619999994451, 0.1439206000000013]",1,2,2,717,001,2024-10-02_14h41.03.579,Trial_mult,2023.2.1,59.87177859895493,2024-10-02 14h41.15.486119 -0400,
225,block6_trial25_attendleft_leadtarget.wav,0,224,224,224,1662.6031671,,,,,,,,,1662.6032401000002,1662.6200531,2.015916699999707,1668.4914671000001,1668.4914781000002,1668.5080345000001,1668.5080345000001,1669.4096353,"['1', '1', '1']","[0.42754229999991367, 0.683218399999987]","[0.1368675999997322, 0.12868529999968814]",1,1,1,717,001,2024-10-02_14h41.03.579,Trial_mult,2023.2.1,59.87177859895493,2024-10-02 14h41.15.486119 -0400,
226,block6_trial26_attendright_leadtarget.wav,0,225,225,225,1669.4256021,,,,,,,,,1669.4256782000002,1669.4422291,2.0177929999999833,1675.2642112000003,1675.2642221,1675.2805558,1675.2805558,1676.0322736000003,"['2', '3', '2']","[0.1437244999997347, 0.39157499999964784]","[0.175376199999846, 0.1751539000001685]",2,3,2,717,001,2024-10-02_14h41.03.579,Trial_mult,2023.2.1,59.87177859895493,2024-10-02 14h41.15.486119 -0400,
227,block6_trial27_attendleft_leadmasker.wav,0,226,226,226,1676.0470452,,,,,,,,,1676.0471186,1676.0639752000002,2.0158956000000217,1681.9017916000003,1681.9018030000002,1681.9184333000003,1681.9184333000003,1682.8705636,"['1', '1', '2']","[0.4973223000001781, 0.6979440000000068]","[0.09663460000001578, 0.1513478000001669]",1,1,2,717,001,2024-10-02_14h41.03.579,Trial_mult,2023.2.1,59.87177859895493,2024-10-02 14h41.15.486119 -0400,
228,block6_trial28_attendleft_leadtarget.wav,0,227,227,227,1682.8859085,,,,,,,,,1682.8859781,1682.9030868,2.016781499999979,1688.7414105000003,1688.7414205,1688.7575350000002,1688.7575350000002,1689.7766684000003,"['1', '2', '1']","[0.5379358000000138, 0.7456044000000475]","[0.09582339999997203, 0.11287270000002536]",1,2,1,717,001,2024-10-02_14h41.03.579,Trial_mult,2023.2.1,59.87177859895493,2024-10-02 14h41.15.486119 -0400,
229,block6_trial29_attendright_leadtarget.wav,0,228,228,228,1689.7913834,,,,,,,,,1689.7914499000003,1689.8085070000002,2.016041700000187,1695.6468429000001,1695.6468560000003,1695.6628307,1695.6628307,1696.6986201,"['2', '3', '2']","[0.5386171000000104, 0.7689626000001226]","[0.1339268000001539, 0.15147669999987556]",2,3,2,717,001,2024-10-02_14h41.03.579,Trial_mult,2023.2.1,59.87177859895493,2024-10-02 14h41.15.486119 -0400,
