Index,audio,trials.thisRepN,trials.thisTrialN,trials.thisN,trials.thisIndex,thisRow.t,notes,Instruction.started,Instructions.started,resp_start.started,Instruction.stopped,resp_start.keys,resp_start.rt,resp_start.duration,trial.started,cross.started,audio.started,trial.stopped,Responses.started,respp.started,key_resp.started,Responses.stopped,key_resp.keys,key_resp.rt,key_resp.duration,response1,response2,response3,participant,session,date,expName,psychopyVersion,frameRate,expStart,
,,,,,,,,0.010571399936452508,0.04383039998356253,0.04383039998356253,2.963338000001386,space,2.9033746999921277,None,,,,,,,,,,,,,,,718,001,2024-10-16_17h42.38.335,Trial_mult,2023.2.1,60.36748100502717,2024-10-16 17h42.50.146237 -0400,
1,block1_trial1_attendright_leadmasker.wav,0,0,0,0,2.980674199992791,,,,,,,,,2.980748699977994,3.012093900004402,2.0005537000251934,8.816932799993083,8.816943199955858,8.83346829994116,8.83346829994116,10.920557899982668,"['2', '3', '3']","[1.2254933000076562, 1.6335304999956861]","[0.16056200000457466, 0.14381919999141246]",2,3,3,718,001,2024-10-16_17h42.38.335,Trial_mult,2023.2.1,60.36748100502717,2024-10-16 17h42.50.146237 -0400,
2,block1_trial2_attendright_leadmasker.wav,0,1,1,1,10.935395199921913,,,,,,,,,10.935461699962616,10.952006199979223,2.0151662999996915,16.806999299908057,16.807009599986486,16.82326709991321,16.82326709991321,19.05984170001466,"['2', '3', '3']","[0.7720008000032976, 1.7479224000126123]","[0.14459979999810457, 0.15181730000767857]",2,3,3,718,001,2024-10-16_17h42.38.335,Trial_mult,2023.2.1,60.36748100502717,2024-10-16 17h42.50.146237 -0400,
3,block1_trial3_attendright_leadtarget.wav,0,2,2,2,19.075183799955994,,,,,,,,,19.075254499912262,19.091910999966785,2.0164141000714153,24.929945099982433,24.929954699939117,24.946614300017245,24.946614300017245,27.366485300008208,"['1', '2', '2']","[1.1293182999361306, 1.84910160000436]","[0.1194221000187099, 0.13525279995519668]",1,2,2,718,001,2024-10-16_17h42.38.335,Trial_mult,2023.2.1,60.36748100502717,2024-10-16 17h42.50.146237 -0400,
4,block1_trial4_attendright_leadmasker.wav,0,3,3,3,27.381981699960306,,,,,,,,,27.382049400010146,27.398474699934013,2.0164976000087336,33.253690099925734,33.25370070000645,33.270438399980776,33.270438399980776,35.305799199966714,"['3', '2', '3']","[1.1418039000127465, 1.5807816000888124]","[0.1666841000551358, 0.1375083999009803]",3,2,3,718,001,2024-10-16_17h42.38.335,Trial_mult,2023.2.1,60.36748100502717,2024-10-16 17h42.50.146237 -0400,
5,block1_trial5_attendright_leadmasker.wav,0,4,4,4,35.32131709996611,,,,,,,,,35.321373599930666,35.33828979998361,2.0169577000197023,41.19338409998454,41.19339419994503,41.2099467999069,41.2099467999069,43.912827399908565,"['3', '1', '1']","[1.5212420000461861, 2.2346905999584123]","[0.14427469996735454, 0.11839459999464452]",3,1,1,718,001,2024-10-16_17h42.38.335,Trial_mult,2023.2.1,60.36748100502717,2024-10-16 17h42.50.146237 -0400,
6,block1_trial6_attendleft_leadtarget.wav,0,5,5,5,43.92832129995804,,,,,,,,,43.928382299956866,43.945143899996765,2.017035400029272,49.783775799907744,49.783786199986935,49.80029889999423,49.80029889999423,52.270414599915966,"['3', '1', '3']","[1.4188338000094518, 2.0189612000249326]","[0.15980440005660057, 0.14350529992952943]",3,1,3,718,001,2024-10-16_17h42.38.335,Trial_mult,2023.2.1,60.36748100502717,2024-10-16 17h42.50.146237 -0400,
7,block1_trial7_attendleft_leadtarget.wav,0,6,6,6,52.28527310001664,,,,,,,,,52.285359199973755,52.301944999955595,2.016075799940154,58.14033640001435,58.1403478999855,58.15690589998849,58.15690589998849,59.55894789996091,"['1', '2', '2']","[0.5741318999789655, 1.0062771000666544]","[0.1524760000174865, 0.12013559998013079]",1,2,2,718,001,2024-10-16_17h42.38.335,Trial_mult,2023.2.1,60.36748100502717,2024-10-16 17h42.50.146237 -0400,
8,block1_trial8_attendleft_leadmasker.wav,0,7,7,7,59.57434990000911,,,,,,,,,59.57443429995328,59.590980499982834,2.016594900051132,65.42910790001042,65.42911789997015,65.44646759994794,65.44646759994794,67.76541100000031,"['1', '2', '2']","[1.2686965999891981, 1.8289383000228554]","[0.10403050004970282, 0.1201455999398604]",1,2,2,718,001,2024-10-16_17h42.38.335,Trial_mult,2023.2.1,60.36748100502717,2024-10-16 17h42.50.146237 -0400,
9,block1_trial9_attendleft_leadmasker.wav,0,8,8,8,67.78074640000705,,,,,,,,,67.7807979999343,67.79738969996106,2.01673849998042,73.65284230001271,73.65285319997929,73.669344099937,73.669344099937,75.77186709991656,"['1', '2', '2']","[1.190545600024052, 1.6785501999547705]","[0.11234130000229925, 0.12064490001648664]",1,2,2,718,001,2024-10-16_17h42.38.335,Trial_mult,2023.2.1,60.36748100502717,2024-10-16 17h42.50.146237 -0400,
10,block1_trial10_attendright_leadtarget.wav,0,9,9,9,75.78724639990833,,,,,,,,,75.78730570001062,75.80389300000388,2.016792200040072,81.64292199991178,81.64293269999325,81.65918389998842,81.65918389998842,83.27806899999268,"['1', '2', '2']","[0.7121059000492096, 1.216308300034143]","[0.1366338999941945, 0.10458199994172901]",1,2,2,718,001,2024-10-16_17h42.38.335,Trial_mult,2023.2.1,60.36748100502717,2024-10-16 17h42.50.146237 -0400,
11,block1_trial11_attendright_leadmasker.wav,0,10,10,10,83.29328859993257,,,,,,,,,83.29334809991997,83.31054209999274,2.0167377000907436,89.16563639999367,89.1656484999694,89.1820330999326,89.1820330999326,91.68539559992496,"['1', '2', '2']","[1.6769728999352083, 2.1015207999153063]","[0.13589620008133352, 0.11321950005367398]",1,2,2,718,001,2024-10-16_17h42.38.335,Trial_mult,2023.2.1,60.36748100502717,2024-10-16 17h42.50.146237 -0400,
12,block1_trial12_attendleft_leadtarget.wav,0,11,11,11,91.69995159993414,,,,,,,,,91.70000179996714,91.7166995999869,2.015800999943167,97.57200990000274,97.57202039996628,97.58867899992038,97.58867899992038,100.32490130001679,"['1', '3', '2']","[1.7189519999083132, 2.262961699976586]","[0.11922560003586113, 0.17597300000488758]",1,3,2,718,001,2024-10-16_17h42.38.335,Trial_mult,2023.2.1,60.36748100502717,2024-10-16 17h42.50.146237 -0400,
13,block1_trial13_attendright_leadmasker.wav,0,12,12,12,100.34035259997472,,,,,,,,,100.34042409993708,100.35696000000462,2.0194703999441117,106.21172899997327,106.21173919993453,106.22831539995968,106.22831539995968,107.76433829998132,"['3', '3', '2']","[0.4715046000201255, 1.0310102000366896]","[0.14381440007127821, 0.15199070004746318]",3,3,2,718,001,2024-10-16_17h42.38.335,Trial_mult,2023.2.1,60.36748100502717,2024-10-16 17h42.50.146237 -0400,
14,block1_trial14_attendright_leadtarget.wav,0,13,13,13,107.77945439994801,,,,,,,,,107.77950699999928,107.79622119991109,2.0163444000063464,113.63511809997726,113.63512879994232,113.6515491999453,113.6515491999453,115.30377659993246,"['2', '3', '3']","[0.46485170000232756, 1.0964355000760406]","[0.1434374999953434, 0.16739129996858537]",2,3,3,718,001,2024-10-16_17h42.38.335,Trial_mult,2023.2.1,60.36748100502717,2024-10-16 17h42.50.146237 -0400,
15,block1_trial15_attendleft_leadmasker.wav,0,14,14,14,115.31905789999291,,,,,,,,,115.31913779990282,115.33557379990816,2.016526799998246,121.15772020001896,121.15773649991024,121.17472279991489,121.17472279991489,123.32692199992016,"['1', '1', '1']","[0.9329750000033528, 1.7484353999607265]","[0.1600823999615386, 0.12888490001205355]",1,1,1,718,001,2024-10-16_17h42.38.335,Trial_mult,2023.2.1,60.36748100502717,2024-10-16 17h42.50.146237 -0400,
16,block1_trial16_attendleft_leadmasker.wav,0,15,15,15,123.34202889993321,,,,,,,,,123.34208859992214,123.3586841999786,2.0164851000299677,129.19738519995008,129.1973959999159,129.2141001999844,129.2141001999844,131.5163646999281,"['2', '1', '1']","[0.7090395999839529, 1.6769474999746308]","[0.1684162999736145, 0.15267530002165586]",2,1,1,718,001,2024-10-16_17h42.38.335,Trial_mult,2023.2.1,60.36748100502717,2024-10-16 17h42.50.146237 -0400,
17,block1_trial17_attendleft_leadtarget.wav,0,16,16,16,131.53183310001623,,,,,,,,,131.53189260000363,131.5485585000133,2.016832399996929,137.45366659993306,137.45367750001606,137.4700373999076,137.4700373999076,140.10715259995777,"['3', '2', '2']","[1.72500780003611, 2.1336459999438375]","[0.16013129998464137, 0.12748330004978925]",3,2,2,718,001,2024-10-16_17h42.38.335,Trial_mult,2023.2.1,60.36748100502717,2024-10-16 17h42.50.146237 -0400,
18,block1_trial18_attendleft_leadtarget.wav,0,17,17,17,140.12218509998638,,,,,,,,,140.12223979993723,140.13898859999608,2.0162974999984726,145.96154139994178,145.9615539999213,145.9774568999419,145.9774568999419,149.19747769995593,"['2', '1', '2']","[0.8906640999484807, 2.25753750000149]","[0.1430576000129804, 0.13629499997477978]",2,1,2,718,001,2024-10-16_17h42.38.335,Trial_mult,2023.2.1,60.36748100502717,2024-10-16 17h42.50.146237 -0400,
19,block1_trial19_attendright_leadtarget.wav,0,18,18,18,149.2127482999349,,,,,,,,,149.2128000999801,149.22951679991093,2.0167046000715345,155.06757559999824,155.06758589996025,155.08418529992923,155.08418529992923,158.3717583999969,"['1', '2', '2']","[1.1119462000206113, 2.5037643000250682]","[0.12721239996608347, 0.1518614999949932]",1,2,2,718,001,2024-10-16_17h42.38.335,Trial_mult,2023.2.1,60.36748100502717,2024-10-16 17h42.50.146237 -0400,
20,block1_trial20_attendright_leadtarget.wav,0,19,19,19,158.38749300001655,,,,,,,,,158.38756119995378,158.40393039991613,2.0161961999256164,164.2587738999864,164.25878409994766,164.27524190000258,164.27524190000258,166.6446421999717,"['2', '3', '1']","[1.1126329000107944, 1.7526004000101238]","[0.14342830004170537, 0.19977589999325573]",2,3,1,718,001,2024-10-16_17h42.38.335,Trial_mult,2023.2.1,60.36748100502717,2024-10-16 17h42.50.146237 -0400,
21,block1_trial21_attendright_leadtarget.wav,0,20,20,20,166.66008569998667,,,,,,,,,166.66014129994437,166.67681520001497,2.0167044999543577,172.51513329998124,172.5151434999425,172.53177070000675,172.53177070000675,175.48545639996883,"['2', '1', '1']","[1.5594598000170663, 2.271493599982932]","[0.1609722999855876, 0.12044900003820658]",2,1,1,718,001,2024-10-16_17h42.38.335,Trial_mult,2023.2.1,60.36748100502717,2024-10-16 17h42.50.146237 -0400,
22,block1_trial22_attendright_leadmasker.wav,0,21,21,21,175.5004943999229,,,,,,,,,175.5005502999993,175.5172541999491,2.0162916000699624,181.33867309999187,181.33868269994855,181.35538449999876,181.35538449999876,183.37487549998332,"['3', '2', '2']","[0.48908629990182817, 1.4080068999901414]","[0.18337860004976392, 0.15330649993848056]",3,2,2,718,001,2024-10-16_17h42.38.335,Trial_mult,2023.2.1,60.36748100502717,2024-10-16 17h42.50.146237 -0400,
23,block1_trial23_attendright_leadmasker.wav,0,22,22,22,183.39037449995521,,,,,,,,,183.39044099999592,183.40704829990864,2.0165882000001147,189.24512189999223,189.24513269995805,189.26181149994954,189.26181149994954,191.93265219999012,"['2', '1', '3']","[1.6293718999950215, 2.1823176000034437]","[0.1362783000804484, 0.14370590006001294]",2,1,3,718,001,2024-10-16_17h42.38.335,Trial_mult,2023.2.1,60.36748100502717,2024-10-16 17h42.50.146237 -0400,
24,block1_trial24_attendright_leadtarget.wav,0,23,23,23,191.94707629992627,,,,,,,,,191.94713579991367,191.9642812999664,2.015814400045201,197.78596429992467,197.78597500000615,197.8024455999257,197.8024455999257,200.9056719999062,"['2', '1', '2']","[1.4163665999658406, 2.3606692999601364]","[0.15999600000213832, 0.15344200003892183]",2,1,2,718,001,2024-10-16_17h42.38.335,Trial_mult,2023.2.1,60.36748100502717,2024-10-16 17h42.50.146237 -0400,
25,block1_trial25_attendright_leadtarget.wav,0,24,24,24,200.9209080999717,,,,,,,,,200.92096049990505,200.93788999994285,2.016544900019653,206.79283849999774,206.79284889996052,206.80950889992528,206.80950889992528,209.9961371999234,"['2', '1', '2']","[1.6733723999932408, 2.5944304999429733]","[0.136019799974747, 0.1351715000346303]",2,1,2,718,001,2024-10-16_17h42.38.335,Trial_mult,2023.2.1,60.36748100502717,2024-10-16 17h42.50.146237 -0400,
26,block1_trial26_attendleft_leadmasker.wav,0,25,25,25,210.01155870000366,,,,,,,,,210.01162319991272,210.02854520000983,2.017031700001098,215.85028769995552,215.85029819991905,215.86681009992026,215.86681009992026,218.18599509994965,"['1', '2', '2']","[1.4011053999420255, 1.8642019999679178]","[0.15976120007690042, 0.13673739996738732]",1,2,2,718,001,2024-10-16_17h42.38.335,Trial_mult,2023.2.1,60.36748100502717,2024-10-16 17h42.50.146237 -0400,
27,block1_trial27_attendleft_leadmasker.wav,0,26,26,26,218.2014593000058,,,,,,,,,218.20150859991554,218.21825499995612,2.0169089999981225,224.07366629992612,224.07367660000455,224.09030379995238,224.09030379995238,226.7931552999653,"['2', '2', '3']","[1.1609535000752658, 2.192842600052245]","[0.14359130000229925, 0.14411659992765635]",2,2,3,718,001,2024-10-16_17h42.38.335,Trial_mult,2023.2.1,60.36748100502717,2024-10-16 17h42.50.146237 -0400,
28,block1_trial28_attendleft_leadtarget.wav,0,27,27,27,226.80825210001785,,,,,,,,,226.80830559995957,226.82513949996792,2.0166889000684023,232.66389879991766,232.66391050000675,232.68041869997978,232.68041869997978,235.85020059999079,"['2', '3', '2']","[1.6840312000131235, 2.1875562999630347]","[0.12662360002286732, 0.16724950005300343]",2,3,2,718,001,2024-10-16_17h42.38.335,Trial_mult,2023.2.1,60.36748100502717,2024-10-16 17h42.50.146237 -0400,
29,block1_trial29_attendright_leadmasker.wav,0,28,28,28,235.86557759996504,,,,,,,,,235.8656302000163,235.88234379992355,2.01681799988728,241.72134829999413,241.72136039996985,241.7382625999162,241.7382625999162,244.5739581999369,"['2', '2', '1']","[1.1616651999065652, 2.4008204999845475]","[0.1364109000423923, 0.14477849996183068]",2,2,1,718,001,2024-10-16_17h42.38.335,Trial_mult,2023.2.1,60.36748100502717,2024-10-16 17h42.50.146237 -0400,
30,block1_trial30_attendright_leadtarget.wav,0,29,29,29,244.58996519993525,,,,,,,,,244.59003889991436,244.60617929999717,2.016736499965191,250.4447965999134,250.44480709999334,250.46116900001653,250.46116900001653,251.97984169994015,"['1', '1', '2']","[0.7019887999631464, 1.1028525000438094]","[0.1045561000937596, 0.13533530000131577]",1,1,2,718,001,2024-10-16_17h42.38.335,Trial_mult,2023.2.1,60.36748100502717,2024-10-16 17h42.50.146237 -0400,
31,block1_trial31_attendleft_leadtarget.wav,0,30,30,30,251.99524449999444,,,,,,,,,251.99529619992245,252.0121700000018,2.016835800022818,257.8339641999919,257.8339747999562,257.8505839999998,257.8505839999998,260.069978699903,"['1', '2', '3']","[1.4013420999981463, 1.8256211000261828]","[0.1359266999643296, 0.14283169992268085]",1,2,3,718,001,2024-10-16_17h42.38.335,Trial_mult,2023.2.1,60.36748100502717,2024-10-16 17h42.50.146237 -0400,
32,block1_trial32_attendleft_leadtarget.wav,0,31,31,31,260.0851698999759,,,,,,,,,260.08523849991616,260.10180319997016,2.016505799954757,265.95727919996716,265.95728979993146,265.9738841999788,265.9738841999788,268.24296920001507,"['1', '2', '2']","[0.8775127000408247, 1.5336326999822631]","[0.13603689998853952, 0.1279338999884203]",1,2,2,718,001,2024-10-16_17h42.38.335,Trial_mult,2023.2.1,60.36748100502717,2024-10-16 17h42.50.146237 -0400,
33,block1_trial33_attendleft_leadmasker.wav,0,32,32,32,268.25839039997663,,,,,,,,,268.2584462999366,268.27511159994174,2.0166849000379443,274.13054119993467,274.1305527999066,274.14695490000304,274.14695490000304,276.3163287999341,"['2', '1', '3']","[0.34459590003825724, 1.1136180999455974]","[0.13535299990326166, 0.15076840005349368]",2,1,3,718,001,2024-10-16_17h42.38.335,Trial_mult,2023.2.1,60.36748100502717,2024-10-16 17h42.50.146237 -0400,
34,block1_trial34_attendright_leadtarget.wav,0,33,33,33,276.3314397999784,,,,,,,,,276.33149629994296,276.3482202999294,2.0167864999966696,282.20323899993673,282.20324880001135,282.21990839997306,282.21990839997306,285.20742949994747,"['2', '1', '3']","[1.2479745000600815, 2.4072628000285476]","[0.13509599992539734, 0.1447496999753639]",2,1,3,718,001,2024-10-16_17h42.38.335,Trial_mult,2023.2.1,60.36748100502717,2024-10-16 17h42.50.146237 -0400,
35,block1_trial35_attendright_leadmasker.wav,0,34,34,34,285.2221161999041,,,,,,,,,285.2221927999053,285.2386690999847,2.0157773999962956,291.0772028999636,291.0772126999218,291.0936779999174,291.0936779999174,293.89709430001676,"['3', '1', '2']","[1.325432899990119, 2.27739299996756]","[0.15225779998581856, 0.14523620007093996]",3,1,2,718,001,2024-10-16_17h42.38.335,Trial_mult,2023.2.1,60.36748100502717,2024-10-16 17h42.50.146237 -0400,
36,block1_trial36_attendleft_leadmasker.wav,0,35,35,35,293.91227709990926,,,,,,,,,293.91233299998567,293.92893809999805,2.0165483999298885,299.76760879997164,299.76761889993213,299.78416519996244,299.78416519996244,301.5545046000043,"['2', '2', '2']","[0.8589975999202579, 1.3634790999349207]","[0.17568590003065765, 0.13598650007043034]",2,2,2,718,001,2024-10-16_17h42.38.335,Trial_mult,2023.2.1,60.36748100502717,2024-10-16 17h42.50.146237 -0400,
37,block1_trial37_attendleft_leadtarget.wav,0,36,36,36,301.56878039997537,,,,,,,,,301.56885909999255,301.5858675999334,2.0150801999261603,307.42313869995996,307.42314909992274,307.44020489999093,307.44020489999093,309.6104764000047,"['1', '3', '3']","[0.9629834999796003, 1.7560976999811828]","[0.1849921999964863, 0.1836217000382021]",1,3,3,718,001,2024-10-16_17h42.38.335,Trial_mult,2023.2.1,60.36748100502717,2024-10-16 17h42.50.146237 -0400,
38,block1_trial38_attendleft_leadmasker.wav,0,37,37,37,309.62501199997496,,,,,,,,,309.62507949990686,309.6415521999588,2.0156512999674305,315.46349719993304,315.4635075000115,315.4800467999885,315.4800467999885,318.26659399992786,"['3', '1', '3']","[1.043641500058584, 1.6511771000223234]","[0.14313089998904616, 0.13652439997531474]",3,1,3,718,001,2024-10-16_17h42.38.335,Trial_mult,2023.2.1,60.36748100502717,2024-10-16 17h42.50.146237 -0400,
39,block1_trial39_attendleft_leadtarget.wav,0,38,38,38,318.2819337999681,,,,,,,,,318.2819989999989,318.29860420001205,2.0165693999733776,324.1366668000119,324.1366764999693,324.1533626000164,324.1533626000164,327.3070402999874,"['1', '1', '2']","[1.2898683999665082, 2.1861178999533877]","[0.12074519996531308, 0.06359839998185635]",1,1,2,718,001,2024-10-16_17h42.38.335,Trial_mult,2023.2.1,60.36748100502717,2024-10-16 17h42.50.146237 -0400,
40,block1_trial40_attendleft_leadmasker.wav,0,39,39,39,327.3224653999787,,,,,,,,,327.32252809999045,327.33910079998896,2.016883800039068,333.1940361999441,333.19404689990915,333.21060379990377,333.21060379990377,334.6128975999309,"['3', '3', '3']","[0.46461509994696826, 0.9283712999895215]","[0.15232580003794283, 0.16133559995796531]",3,3,3,718,001,2024-10-16_17h42.38.335,Trial_mult,2023.2.1,60.36748100502717,2024-10-16 17h42.50.146237 -0400,
41,block2_trial1_attendleft_leadmasker.wav,0,40,40,40,334.6282911999151,,,,,,,,,340.56720299995504,340.58369679993484,2.018257000017911,346.43838319997303,346.43839269992895,346.45494600001257,346.45494600001257,348.12373519991525,"['3', '3', '1']","[0.8684530999744311, 1.2839519999688491]","[0.1599000000860542, 0.1359519000397995]",3,3,1,718,001,2024-10-16_17h42.38.335,Trial_mult,2023.2.1,60.36748100502717,2024-10-16 17h42.50.146237 -0400,
42,block2_trial2_attendleft_leadtarget.wav,0,41,41,41,348.1391219999641,,,,,,,,,348.1391755999066,348.155735099921,2.016596799949184,354.0108618999366,354.01087309990544,354.0272376999492,354.0272376999492,355.530410700012,"['2', '2', '1']","[0.8557063000043854, 1.1851309000048786]","[0.1361405000789091, 0.12645880004856735]",2,2,1,718,001,2024-10-16_17h42.38.335,Trial_mult,2023.2.1,60.36748100502717,2024-10-16 17h42.50.146237 -0400,
43,block2_trial3_attendright_leadtarget.wav,0,42,42,42,355.545219099964,,,,,,,,,355.54528630001005,355.5617968000006,2.0158998999977484,361.3835160000017,361.3835270999698,361.40002519998234,361.40002519998234,364.6201938999584,"['1', '3', '2']","[2.1790856999577954, 2.683346000034362]","[0.11203880002722144, 0.15218889992684126]",1,3,2,718,001,2024-10-16_17h42.38.335,Trial_mult,2023.2.1,60.36748100502717,2024-10-16 17h42.50.146237 -0400,
44,block2_trial4_attendright_leadtarget.wav,0,43,43,43,364.63595869997516,,,,,,,,,364.6360266999109,364.65286469995044,2.0166977000189945,370.4918530000141,370.4918637999799,370.5076311000157,370.5076311000157,373.81104139995296,"['3', '2', '2']","[2.024873699992895, 2.855231499997899]","[0.15860239998437464, 0.1134456000290811]",3,2,2,718,001,2024-10-16_17h42.38.335,Trial_mult,2023.2.1,60.36748100502717,2024-10-16 17h42.50.146237 -0400,
45,block2_trial5_attendright_leadtarget.wav,0,44,44,44,373.8264346999349,,,,,,,,,373.82649150001816,373.84307870001066,2.017161999945529,379.68133259995375,379.6813430999173,379.6978533999063,379.6978533999063,381.5508805999998,"['2', '3', '3']","[0.6103127999231219, 1.450946299941279]","[0.12696110003162175, 0.15857620001770556]",2,3,3,718,001,2024-10-16_17h42.38.335,Trial_mult,2023.2.1,60.36748100502717,2024-10-16 17h42.50.146237 -0400,
46,block2_trial6_attendright_leadmasker.wav,0,45,45,45,381.56652669992764,,,,,,,,,381.56660449993797,381.582777399919,2.0167710999958217,387.4376924999524,387.43770939996466,387.45414629997686,387.45414629997686,390.42455300001893,"['1', '3', '2']","[1.2608428000239655, 1.9580046000191942]","[0.12812859995756298, 0.19921999995131046]",1,3,2,718,001,2024-10-16_17h42.38.335,Trial_mult,2023.2.1,60.36748100502717,2024-10-16 17h42.50.146237 -0400,
47,block2_trial7_attendright_leadtarget.wav,0,46,46,46,390.43963589996565,,,,,,,,,390.4396933999378,390.45651389996056,2.016620700014755,396.3118988999631,396.3119097999297,396.328405899927,396.328405899927,397.7969111999264,"['1', '1', '3']","[0.5149362999945879, 0.9466535999672487]","[0.11983169999439269, 0.13604939996730536]",1,1,3,718,001,2024-10-16_17h42.38.335,Trial_mult,2023.2.1,60.36748100502717,2024-10-16 17h42.50.146237 -0400,
48,block2_trial8_attendright_leadmasker.wav,0,47,47,47,397.81238549994305,,,,,,,,,397.81244040001184,397.8290969999507,2.017152399988845,403.6511731999926,403.6511833999539,403.6677148999879,403.6677148999879,405.6031960999826,"['1', '2', '3']","[1.104454300017096, 1.5673833000473678]","[0.16689490003045648, 0.12801019998732954]",1,2,3,718,001,2024-10-16_17h42.38.335,Trial_mult,2023.2.1,60.36748100502717,2024-10-16 17h42.50.146237 -0400,
49,block2_trial9_attendright_leadtarget.wav,0,48,48,48,405.6188181999605,,,,,,,,,405.61888409999665,405.6352587000001,2.0167712999973446,411.4902369999327,411.4902463000035,411.50663079996593,411.50663079996593,413.4428772999672,"['1', '2', '2']","[1.121438399888575, 1.6087088999338448]","[0.15984460001345724, 0.13682280003558844]",1,2,2,718,001,2024-10-16_17h42.38.335,Trial_mult,2023.2.1,60.36748100502717,2024-10-16 17h42.50.146237 -0400,
50,block2_trial10_attendleft_leadmasker.wav,0,49,49,49,413.4583934999537,,,,,,,,,413.4584615000058,413.47491499991156,2.016605900018476,419.29650149994995,419.29651109990664,419.31310029991437,419.31310029991437,420.6656708999071,"['1', '2', '2']","[0.6098562999395654, 1.0589832999976352]","[0.14390819997061044, 0.07894449995364994]",1,2,2,718,001,2024-10-16_17h42.38.335,Trial_mult,2023.2.1,60.36748100502717,2024-10-16 17h42.50.146237 -0400,
51,block2_trial11_attendleft_leadmasker.wav,0,50,50,50,420.68125779996626,,,,,,,,,420.68132430000696,420.69756379991304,2.0167330999393016,426.5357082999544,426.53571879991796,426.5521886999486,426.5521886999486,429.23888159997296,"['1', '1', '2']","[0.7790244999341667, 1.803283599903807]","[0.15241189999505877, 0.16768480010796338]",1,1,2,718,001,2024-10-16_17h42.38.335,Trial_mult,2023.2.1,60.36748100502717,2024-10-16 17h42.50.146237 -0400,
52,block2_trial12_attendleft_leadmasker.wav,0,51,51,51,429.25428979995195,,,,,,,,,429.2543443000177,429.27109439997,2.016856399946846,435.1263827999355,435.1263937000185,435.1423778999597,435.1423778999597,437.0952401999384,"['1', '2', '3']","[0.8379900000290945, 1.4689229000359774]","[0.14309809997212142, 0.1444232000503689]",1,2,3,718,001,2024-10-16_17h42.38.335,Trial_mult,2023.2.1,60.36748100502717,2024-10-16 17h42.50.146237 -0400,
53,block2_trial13_attendright_leadmasker.wav,0,52,52,52,437.1105666999938,,,,,,,,,437.11061749991495,437.12720240000635,2.016840499942191,442.9826753999805,442.9826856999425,442.9996133999666,442.9996133999666,445.06844069994986,"['1', '1', '1']","[1.1083935999777168, 1.6682803999865428]","[0.15092430007643998, 0.11111689999233931]",1,1,1,718,001,2024-10-16_17h42.38.335,Trial_mult,2023.2.1,60.36748100502717,2024-10-16 17h42.50.146237 -0400,
54,block2_trial14_attendright_leadmasker.wav,0,53,53,53,445.0839439999545,,,,,,,,,445.0840215999633,445.1008640999207,2.0164589999476448,450.92231910000555,450.92233049997594,450.9390258999774,450.9390258999774,453.0747369999299,"['1', '1', '2']","[0.824015700025484, 1.7286304000299424]","[0.18466789997182786, 0.12775490002240986]",1,1,2,718,001,2024-10-16_17h42.38.335,Trial_mult,2023.2.1,60.36748100502717,2024-10-16 17h42.50.146237 -0400,
55,block2_trial15_attendleft_leadmasker.wav,0,54,54,54,453.09020989993587,,,,,,,,,453.0902829999104,453.1068805999821,2.0165123000042513,458.9617757999804,458.9617873999523,458.9783295999514,458.9783295999514,460.6143346999306,"['1', '3', '3']","[0.865158100030385, 1.313238300033845]","[0.1518443999812007, 0.14335779997054487]",1,3,3,718,001,2024-10-16_17h42.38.335,Trial_mult,2023.2.1,60.36748100502717,2024-10-16 17h42.50.146237 -0400,
56,block2_trial16_attendleft_leadtarget.wav,0,55,55,55,460.6295087999897,,,,,,,,,460.62957569991704,460.64621799997985,2.0164908999577165,466.4847712999908,466.48478109994903,466.50174679991324,466.50174679991324,470.6210331999464,"['1', '3']","[1.0460359998978674, 2.4460623000049964]","[0.15996900002937764, 0.1592190999072045]",1,3,NA,718,001,2024-10-16_17h42.38.335,Trial_mult,2023.2.1,60.36748100502717,2024-10-16 17h42.50.146237 -0400,
57,block2_trial17_attendleft_leadmasker.wav,0,56,56,56,470.6376638999209,,,,,,,,,470.63773329998367,470.65417049999814,2.0236462000757456,476.5096645000158,476.50967569998465,476.5261498999316,476.5261498999316,478.91266129992437,"['2', '2', '3']","[1.6452591998968273, 2.0130662999581546]","[0.1276754999998957, 0.13690269994549453]",2,2,3,718,001,2024-10-16_17h42.38.335,Trial_mult,2023.2.1,60.36748100502717,2024-10-16 17h42.50.146237 -0400,
58,block2_trial18_attendleft_leadtarget.wav,0,57,57,57,478.9279863999691,,,,,,,,,478.9280589999398,478.944327199948,2.0165467000333592,484.7831953999121,484.783208000008,484.80076559993904,484.80076559993904,487.0527045999188,"['1', '2', '2']","[0.6430855999933556, 1.5390657000243664]","[0.14390330004971474, 0.16023649997077882]",1,2,2,718,001,2024-10-16_17h42.38.335,Trial_mult,2023.2.1,60.36748100502717,2024-10-16 17h42.50.146237 -0400,
59,block2_trial19_attendleft_leadmasker.wav,0,58,58,58,487.0679581000004,,,,,,,,,487.06803119997494,487.08430639992,2.015914999996312,492.90599809994455,492.9060082999058,492.9226231999928,492.9226231999928,495.07493469992187,"['1', '2', '2']","[1.425295399967581, 1.8326125000603497]","[0.13563710008747876, 0.10364109999500215]",1,2,2,718,001,2024-10-16_17h42.38.335,Trial_mult,2023.2.1,60.36748100502717,2024-10-16 17h42.50.146237 -0400,
60,block2_trial20_attendright_leadmasker.wav,0,59,59,59,495.09040380001534,,,,,,,,,495.0904583999654,495.10709700000007,2.0168381999246776,500.94547349994536,500.94548439991195,500.9618257000111,500.9618257000111,502.93222369998693,"['3', '3', '3']","[1.241909599979408, 1.6101867000106722]","[0.12714600004255772, 0.13511869998183101]",3,3,3,718,001,2024-10-16_17h42.38.335,Trial_mult,2023.2.1,60.36748100502717,2024-10-16 17h42.50.146237 -0400,
61,block2_trial21_attendright_leadtarget.wav,0,60,60,60,502.9474853000138,,,,,,,,,502.94756050000433,502.9634944999125,2.0157375000417233,508.7855378999375,508.7855486999033,508.80201009998564,508.80201009998564,510.2372118999483,"['1', '3', '3']","[0.6659566999878734, 1.0809926999500021]","[0.1511829000664875, 0.17732070002239197]",1,3,3,718,001,2024-10-16_17h42.38.335,Trial_mult,2023.2.1,60.36748100502717,2024-10-16 17h42.50.146237 -0400,
62,block2_trial22_attendleft_leadtarget.wav,0,61,61,61,510.2526640999131,,,,,,,,,510.2527171999682,510.2694672999205,2.0168240999337286,516.124629399972,516.1246402999386,516.1411347999237,516.1411347999237,518.7773649999872,"['1', '2', '2']","[0.6871205000206828, 1.9738673999672756]","[0.16084439994301647, 0.1524030000437051]",1,2,2,718,001,2024-10-16_17h42.38.335,Trial_mult,2023.2.1,60.36748100502717,2024-10-16 17h42.50.146237 -0400,
63,block2_trial23_attendleft_leadtarget.wav,0,62,62,62,518.7928742999211,,,,,,,,,518.7929341999115,518.8102260999149,2.016737199970521,524.6646986999549,524.6647095999215,524.6810690999264,524.6810690999264,527.2340856000083,"['2', '1', '3']","[0.9636489999247715, 2.0520071999635547]","[0.15040839998982847, 0.14988439995795488]",2,1,3,718,001,2024-10-16_17h42.38.335,Trial_mult,2023.2.1,60.36748100502717,2024-10-16 17h42.50.146237 -0400,
64,block2_trial24_attendleft_leadtarget.wav,0,63,63,63,527.2500711999601,,,,,,,,,527.2501426999224,527.2665003999136,2.0168211999116465,533.1215571999783,533.121567599941,533.1383613999933,533.1383613999933,535.4743234999478,"['1', '2', '2']","[1.0890387000981718, 1.760732700000517]","[0.15264339989516884, 0.10422040009871125]",1,2,2,718,001,2024-10-16_17h42.38.335,Trial_mult,2023.2.1,60.36748100502717,2024-10-16 17h42.50.146237 -0400,
65,block2_trial25_attendright_leadmasker.wav,0,64,64,64,535.4896951999981,,,,,,,,,535.4897659999551,535.5062972999876,2.0167994999792427,541.344761999906,541.3447723999852,541.3613690999337,541.3613690999337,543.4304907999467,"['1', '3', '3']","[0.9943355999421328, 1.6818258999846876]","[0.191261800006032, 0.14473189995624125]",1,3,3,718,001,2024-10-16_17h42.38.335,Trial_mult,2023.2.1,60.36748100502717,2024-10-16 17h42.50.146237 -0400,
66,block2_trial26_attendright_leadmasker.wav,0,65,65,65,543.4461009999504,,,,,,,,,543.4461725999136,543.4627333999379,2.0171513000968844,549.3342586999061,549.3342694999883,549.3507991000079,549.3507991000079,551.8871395000024,"['1', '3', '2']","[1.3647117000073195, 2.2122047999873757]","[0.15250520000699908, 0.14480080001521856]",1,3,2,718,001,2024-10-16_17h42.38.335,Trial_mult,2023.2.1,60.36748100502717,2024-10-16 17h42.50.146237 -0400,
67,block2_trial27_attendright_leadtarget.wav,0,66,66,66,551.9026741000125,,,,,,,,,551.9027235999238,551.9194489999209,2.0171229999978095,557.7744033999043,557.7744134999812,557.7909716999857,557.7909716999857,559.2265289999777,"['2', '2', '2']","[0.668142499984242, 1.0280455000465736]","[0.11980210000183433, 0.11190549994353205]",2,2,2,718,001,2024-10-16_17h42.38.335,Trial_mult,2023.2.1,60.36748100502717,2024-10-16 17h42.50.146237 -0400,
68,block2_trial28_attendleft_leadmasker.wav,0,67,67,67,559.2420086999191,,,,,,,,,559.2420726999408,559.2591865999857,2.0168000999838114,565.1137369999196,565.1137470999965,565.1301889999304,565.1301889999304,567.3999655999942,"['1', '2', '2']","[1.2188488999381661, 1.8971028999658301]","[0.16661329998169094, 0.1365637999260798]",1,2,2,718,001,2024-10-16_17h42.38.335,Trial_mult,2023.2.1,60.36748100502717,2024-10-16 17h42.50.146237 -0400,
69,block2_trial29_attendright_leadtarget.wav,0,68,68,68,567.4153024000116,,,,,,,,,567.4153795000166,567.4324369999813,2.0166188000002876,573.2869724999182,573.2869886999251,573.3033522999613,573.3033522999613,574.8726625000127,"['2', '2', '2']","[0.8922097000759095, 1.2443460000213236]","[0.13625390001107007, 0.11984679999295622]",2,2,2,718,001,2024-10-16_17h42.38.335,Trial_mult,2023.2.1,60.36748100502717,2024-10-16 17h42.50.146237 -0400,
70,block2_trial30_attendleft_leadtarget.wav,0,69,69,69,574.8878844999708,,,,,,,,,574.8879489999963,574.9045687000034,2.016491699963808,580.7593185999431,580.7593292999081,580.7759580999846,580.7759580999846,583.4625822999515,"['2', '1', '3']","[0.891278300085105, 1.6753752001095563]","[0.13736860000062734, 0.1041556999552995]",2,1,3,718,001,2024-10-16_17h42.38.335,Trial_mult,2023.2.1,60.36748100502717,2024-10-16 17h42.50.146237 -0400,
71,block2_trial31_attendright_leadmasker.wav,0,70,70,70,583.4780926000094,,,,,,,,,583.4781443999382,583.4951310999459,2.0166464999783784,589.3168075999711,589.3168178999331,589.3333575999131,589.3333575999131,592.2028594999574,"['1', '3', '2']","[1.0863091999199241, 2.3183084999909624]","[0.12807259999681264, 0.14334429998416454]",1,3,2,718,001,2024-10-16_17h42.38.335,Trial_mult,2023.2.1,60.36748100502717,2024-10-16 17h42.50.146237 -0400,
72,block2_trial32_attendleft_leadtarget.wav,0,71,71,71,592.2186744000064,,,,,,,,,592.2187514000107,592.2351747999201,2.016766699962318,598.0906466000015,598.0906575999688,598.1069860999705,598.1069860999705,600.3764047999866,"['1', '2', '2']","[0.7685046000406146, 1.592368100071326]","[0.16745449998416007, 0.16869739990215749]",1,2,2,718,001,2024-10-16_17h42.38.335,Trial_mult,2023.2.1,60.36748100502717,2024-10-16 17h42.50.146237 -0400,
73,block2_trial33_attendright_leadtarget.wav,0,72,72,72,600.391674399958,,,,,,,,,600.3917331999401,600.4084171999712,2.0166697000386193,606.2637707999675,606.2637811999302,606.2802802999504,606.2802802999504,609.0332814999856,"['1', '3', '3']","[1.6596738999942318, 2.236132899997756]","[0.15889940003398806, 0.19071200001053512]",1,3,3,718,001,2024-10-16_17h42.38.335,Trial_mult,2023.2.1,60.36748100502717,2024-10-16 17h42.50.146237 -0400,
74,block2_trial34_attendright_leadtarget.wav,0,73,73,73,609.0486124999588,,,,,,,,,609.0486691999249,609.0654449999565,2.016634100000374,614.9039224999724,614.9039325999329,614.9212485000025,614.9212485000025,617.7400170000037,"['2', '2', '3']","[1.8016361999325454, 2.3463391999248415]","[0.12885840004310012, 0.12797030003275722]",2,2,3,718,001,2024-10-16_17h42.38.335,Trial_mult,2023.2.1,60.36748100502717,2024-10-16 17h42.50.146237 -0400,
75,block2_trial35_attendright_leadmasker.wav,0,74,74,74,617.7556362999603,,,,,,,,,617.7557025999995,617.7722303000046,2.0169811999658123,623.6277051999932,623.6277166999644,623.6441563999979,623.6441563999979,627.7475231999997,"['3', '1']","[0.9752256000647321, 1.6876888000406325]","[0.1600012999260798, 0.10343399993143976]",3,1,NA,718,001,2024-10-16_17h42.38.335,Trial_mult,2023.2.1,60.36748100502717,2024-10-16 17h42.50.146237 -0400,
76,block2_trial36_attendleft_leadtarget.wav,0,75,75,75,627.763650399982,,,,,,,,,627.7637048999313,627.7802422000095,2.0244218000443652,633.618861899944,633.6188714000164,633.6355373999104,633.6355373999104,635.6045364999445,"['3', '2', '1']","[1.047632300062105, 1.5200258999830112]","[0.2078482999932021, 0.11938180006109178]",3,2,1,718,001,2024-10-16_17h42.38.335,Trial_mult,2023.2.1,60.36748100502717,2024-10-16 17h42.50.146237 -0400,
77,block2_trial37_attendleft_leadmasker.wav,0,76,76,76,635.6200970999198,,,,,,,,,635.6201691000024,635.6367747999029,2.01667250005994,641.4587807999924,641.4587940999772,641.4747754000127,641.4747754000127,645.4624136999482,"['3', '2', '2']","[1.6329182999907061, 2.280224599991925]","[0.18498889997135848, 0.1607236999552697]",3,2,2,718,001,2024-10-16_17h42.38.335,Trial_mult,2023.2.1,60.36748100502717,2024-10-16 17h42.50.146237 -0400,
78,block2_trial38_attendleft_leadtarget.wav,0,77,77,77,645.4778605999891,,,,,,,,,645.4779334999621,645.4944874999346,2.01723499991931,651.3495718999766,651.3495823999401,651.3663237999426,651.3663237999426,652.7682624999434,"['2', '1', '1']","[0.6293402999872342, 1.0614704000763595]","[0.14358800009358674, 0.10383509995881468]",2,1,1,718,001,2024-10-16_17h42.38.335,Trial_mult,2023.2.1,60.36748100502717,2024-10-16 17h42.50.146237 -0400,
79,block2_trial39_attendright_leadmasker.wav,0,78,78,78,652.7838857999304,,,,,,,,,652.7839596999111,652.8005182999186,2.0164915999630466,658.6391907999059,658.6392012999859,658.6551289999625,658.6551289999625,661.2755767999915,"['2', '3', '3']","[1.8124721999047324, 2.212773999897763]","[0.10324870003387332, 0.1591125000268221]",2,3,3,718,001,2024-10-16_17h42.38.335,Trial_mult,2023.2.1,60.36748100502717,2024-10-16 17h42.50.146237 -0400,
80,block2_trial40_attendleft_leadmasker.wav,0,79,79,79,661.2907690999564,,,,,,,,,661.2908428999363,661.3074778999435,2.016314300009981,667.146208299906,667.1462194999913,667.1624249999877,667.1624249999877,669.3484680999536,"['2', '1', '1']","[1.2487198000308126, 1.7775714000454172]","[0.12879929994232953, 0.09552209998946637]",2,1,1,718,001,2024-10-16_17h42.38.335,Trial_mult,2023.2.1,60.36748100502717,2024-10-16 17h42.50.146237 -0400,
81,block3_trial1_attendright_leadmasker.wav,0,80,80,80,669.3637975999154,,,,,,,,,685.2930916999467,685.3097698999336,2.019073599949479,691.1481833999278,691.1481940000085,691.1645741999382,691.1645741999382,692.9842800999759,"['2', '3', '3']","[0.8311146999476478, 1.4555553999962285]","[0.1592572999652475, 0.15108779992442578]",2,3,3,718,001,2024-10-16_17h42.38.335,Trial_mult,2023.2.1,60.36748100502717,2024-10-16 17h42.50.146237 -0400,
82,block3_trial2_attendright_leadmasker.wav,0,81,81,81,692.999640999944,,,,,,,,,692.9997072999831,693.0166630999884,2.0161485000280663,698.8545663999394,698.8545783999143,698.8711404999485,698.8711404999485,699.9231789999176,"['3', '3', '3']","[0.42784939997363836, 0.756501300027594]","[0.12877120007760823, 0.11194630002137274]",3,3,3,718,001,2024-10-16_17h42.38.335,Trial_mult,2023.2.1,60.36748100502717,2024-10-16 17h42.50.146237 -0400,
83,block3_trial3_attendright_leadmasker.wav,0,82,82,82,699.9382899999619,,,,,,,,,699.938352099969,699.9549021999119,2.016851400025189,705.776623899932,705.7766353000188,705.7930810999824,705.7930810999824,707.9960275999038,"['3', '2', '2']","[1.2981109999818727, 1.7220448999432847]","[0.15234210004564375, 0.14432210009545088]",3,2,2,718,001,2024-10-16_17h42.38.335,Trial_mult,2023.2.1,60.36748100502717,2024-10-16 17h42.50.146237 -0400,
84,block3_trial4_attendright_leadmasker.wav,0,83,83,83,708.0115694999695,,,,,,,,,708.0116247999249,708.0280209999764,2.0166272999485955,713.8664144999348,713.866426399909,713.8827797999838,713.8827797999838,715.251940999995,"['2', '2', '2']","[0.6804273000452667, 1.0805476000532508]","[0.12013130006380379, 0.09555520000867546]",2,2,2,718,001,2024-10-16_17h42.38.335,Trial_mult,2023.2.1,60.36748100502717,2024-10-16 17h42.50.146237 -0400,
85,block3_trial5_attendright_leadmasker.wav,0,84,84,84,715.2678721999982,,,,,,,,,715.2679464999819,715.2840251999442,2.0167274000123143,721.1557787999045,721.1557892999845,721.1724382999819,721.1724382999819,723.1085079999175,"['2', '3', '3']","[0.9987044000299647, 1.439207100076601]","[0.15380770002957433, 0.1762328000040725]",2,3,3,718,001,2024-10-16_17h42.38.335,Trial_mult,2023.2.1,60.36748100502717,2024-10-16 17h42.50.146237 -0400,
86,block3_trial6_attendright_leadtarget.wav,0,85,85,85,723.1235450999811,,,,,,,,,723.12361219991,723.140321200015,2.016238500014879,728.9953212999972,728.9953317999607,729.0117073999718,729.0117073999718,730.4479576000012,"['2', '2', '1']","[0.6073583000106737, 1.0071430000243708]","[0.12000430002808571, 0.12881479994393885]",2,2,1,718,001,2024-10-16_17h42.38.335,Trial_mult,2023.2.1,60.36748100502717,2024-10-16 17h42.50.146237 -0400,
87,block3_trial7_attendleft_leadmasker.wav,0,86,86,86,730.4633725999156,,,,,,,,,730.4634470000165,730.4798015999841,2.016190700000152,736.3341805000091,736.3341905999696,736.3508781999117,736.3508781999117,737.8366381999804,"['3', '3', '2']","[0.6601456999778748, 0.996819099993445]","[0.13707320007961243, 0.1763312000548467]",3,3,2,718,001,2024-10-16_17h42.38.335,Trial_mult,2023.2.1,60.36748100502717,2024-10-16 17h42.50.146237 -0400,
88,block3_trial8_attendright_leadmasker.wav,0,87,87,87,737.8523445000174,,,,,,,,,737.8524184999987,737.8687039999058,2.0166194000048563,743.724537299946,743.724547999911,743.7410194999538,743.7410194999538,745.8262739999918,"['2', '1', '1']","[1.262403400032781, 1.6778709000209346]","[0.11323649995028973, 0.16116469993721694]",2,1,1,718,001,2024-10-16_17h42.38.335,Trial_mult,2023.2.1,60.36748100502717,2024-10-16 17h42.50.146237 -0400,
89,block3_trial9_attendright_leadtarget.wav,0,88,88,88,745.8424586999463,,,,,,,,,745.8425316999201,745.8585730999475,2.0167695999844,751.7137014999753,751.713711499935,751.7303054999793,751.7303054999793,754.5337303999113,"['1', '2', '1']","[0.9856919999001548, 2.224973899894394]","[0.16697840008419007, 0.09612440003547817]",1,2,1,718,001,2024-10-16_17h42.38.335,Trial_mult,2023.2.1,60.36748100502717,2024-10-16 17h42.50.146237 -0400,
90,block3_trial10_attendleft_leadtarget.wav,0,89,89,89,754.5488209999166,,,,,,,,,754.5488736999687,754.5654019999783,2.0165364999556914,760.3871121999109,760.3871225999901,760.4034015999641,760.4034015999641,762.6237620000029,"['1', '3', '2']","[0.680413999943994, 1.8010619999840856]","[0.13598859997000545, 0.16664990002755076]",1,3,2,718,001,2024-10-16_17h42.38.335,Trial_mult,2023.2.1,60.36748100502717,2024-10-16 17h42.50.146237 -0400,
91,block3_trial11_attendright_leadtarget.wav,0,90,90,90,762.6389352999395,,,,,,,,,762.6390105999308,762.6553518999135,2.01637780002784,768.4772269999376,768.4772375000175,768.4938119999133,768.4938119999133,769.9630431999685,"['2', '3', '1']","[0.5812152000144124, 1.0450988999800757]","[0.11311389994807541, 0.15249520004726946]",2,3,1,718,001,2024-10-16_17h42.38.335,Trial_mult,2023.2.1,60.36748100502717,2024-10-16 17h42.50.146237 -0400,
92,block3_trial12_attendleft_leadmasker.wav,0,91,91,91,769.9781970999902,,,,,,,,,769.9782529999502,769.9947755999165,2.0160345000913367,775.8165594999446,775.8165697999066,775.832977199927,775.832977199927,777.3182747999672,"['2', '2', '3']","[0.4427030000369996, 0.7868366999318823]","[0.1041660999180749, 0.11139490001369268]",2,2,3,718,001,2024-10-16_17h42.38.335,Trial_mult,2023.2.1,60.36748100502717,2024-10-16 17h42.50.146237 -0400,
93,block3_trial13_attendleft_leadtarget.wav,0,92,92,92,777.3338969999459,,,,,,,,,777.3339695999166,777.3505104999058,2.0169950000708923,783.1887302999385,783.1887414999073,783.2051513999468,783.2051513999468,784.691077800002,"['1', '1', '2']","[0.7101438998943195, 1.0953051999676973]","[0.14492029999382794, 0.1425069000106305]",1,1,2,718,001,2024-10-16_17h42.38.335,Trial_mult,2023.2.1,60.36748100502717,2024-10-16 17h42.50.146237 -0400,
94,block3_trial14_attendleft_leadtarget.wav,0,93,93,93,784.7062314999057,,,,,,,,,784.7062853999669,784.7229948999593,2.016612399951555,790.5783636999549,790.5783741999185,790.5950867999345,790.5950867999345,791.5462983999169,"['3', '3', '3']","[0.27275259990710765, 0.6165145999984816]","[0.1037341000046581, 0.10465209989342839]",3,3,3,718,001,2024-10-16_17h42.38.335,Trial_mult,2023.2.1,60.36748100502717,2024-10-16 17h42.50.146237 -0400,
95,block3_trial15_attendleft_leadtarget.wav,0,94,94,94,791.5621075999225,,,,,,,,,791.5621840999229,791.5786196999252,2.0167640999425203,797.4000851999735,797.4000960999401,797.4164737999672,797.4164737999672,798.4360822999151,"['3', '3', '1']","[0.2429534998955205, 0.6345943999476731]","[0.12846800009720027, 0.1280605000210926]",3,3,1,718,001,2024-10-16_17h42.38.335,Trial_mult,2023.2.1,60.36748100502717,2024-10-16 17h42.50.146237 -0400,
96,block3_trial16_attendright_leadtarget.wav,0,95,95,95,798.4508170000045,,,,,,,,,798.4508859999478,798.4674079999095,2.0157962000230327,804.3225753000006,804.3225852999603,804.3391339000082,804.3391339000082,805.6576945999404,"['1', '1', '1']","[0.6560913999564946, 0.9841991000575945]","[0.13584570004604757, 0.12002009991556406]",1,1,1,718,001,2024-10-16_17h42.38.335,Trial_mult,2023.2.1,60.36748100502717,2024-10-16 17h42.50.146237 -0400,
97,block3_trial17_attendleft_leadtarget.wav,0,96,96,96,805.673169799964,,,,,,,,,805.67322649993,805.6898015999468,2.01687289995607,811.5283249999629,811.5283351999242,811.5446560999844,811.5446560999844,813.8977651000023,"['2', '2', '2']","[1.1867559000384063, 2.0103372000157833]","[0.11155259993392974, 0.1374165000161156]",2,2,2,718,001,2024-10-16_17h42.38.335,Trial_mult,2023.2.1,60.36748100502717,2024-10-16 17h42.50.146237 -0400,
98,block3_trial18_attendleft_leadmasker.wav,0,97,97,97,813.9130173999583,,,,,,,,,813.9130682999967,813.9303624000167,2.016553199966438,819.7845387000125,819.7845486999722,819.8014096999541,819.8014096999541,821.2200377999106,"['2', '1', '2']","[0.6024277000688016, 1.0420689000748098]","[0.1351538000162691, 0.13576219999231398]",2,1,2,718,001,2024-10-16_17h42.38.335,Trial_mult,2023.2.1,60.36748100502717,2024-10-16 17h42.50.146237 -0400,
99,block3_trial19_attendright_leadmasker.wav,0,98,98,98,821.2355999000138,,,,,,,,,821.2356545999646,821.2523380999919,2.017176700057462,827.0742774999235,827.074288200005,827.0903742999071,827.0903742999071,829.2938648000127,"['1', '3', '3']","[0.7051795000443235, 1.5373704000376165]","[0.16028009995352477, 0.16072339995298535]",1,3,3,718,001,2024-10-16_17h42.38.335,Trial_mult,2023.2.1,60.36748100502717,2024-10-16 17h42.50.146237 -0400,
100,block3_trial20_attendright_leadmasker.wav,0,99,99,99,829.308804399916,,,,,,,,,829.3088701999513,829.3253127000062,2.0162872000364587,835.1644313000143,835.1644560999703,835.1812540999381,835.1812540999381,837.04980909999,"['2', '3', '1']","[0.5176734999986365, 1.318010100047104]","[0.15262030006852, 0.16134809993673116]",2,3,1,718,001,2024-10-16_17h42.38.335,Trial_mult,2023.2.1,60.36748100502717,2024-10-16 17h42.50.146237 -0400,
101,block3_trial21_attendright_leadtarget.wav,0,100,100,100,837.0650487999665,,,,,,,,,837.0651219999418,837.0818304999266,2.0165374000789598,842.9202392000007,842.9202498999657,842.9368991999654,842.9368991999654,844.1387977999402,"['2', '2', '1']","[0.40314299997407943, 0.7621664999751374]","[0.10368910001125187, 0.1371246000053361]",2,2,1,718,001,2024-10-16_17h42.38.335,Trial_mult,2023.2.1,60.36748100502717,2024-10-16 17h42.50.146237 -0400,
102,block3_trial22_attendright_leadmasker.wav,0,101,101,101,844.1544254999608,,,,,,,,,844.1545007999521,844.1710959000047,2.0164544999133795,850.0266311999876,850.0266411999473,850.0426835999824,850.0426835999824,852.1125440999167,"['3', '1', '2']","[1.0485789000522345, 1.6409110999666154]","[0.1607555999653414, 0.16842280002310872]",3,1,2,718,001,2024-10-16_17h42.38.335,Trial_mult,2023.2.1,60.36748100502717,2024-10-16 17h42.50.146237 -0400,
103,block3_trial23_attendright_leadtarget.wav,0,102,102,102,852.1277847000165,,,,,,,,,852.1278551999712,852.1438742999453,2.0159516000421718,857.9665237999288,857.9665370999137,857.982525200001,857.982525200001,859.284778399975,"['3', '1', '1']","[0.42070949997287244, 0.8686192999593914]","[0.16842070000711828, 0.13659210002515465]",3,1,1,718,001,2024-10-16_17h42.38.335,Trial_mult,2023.2.1,60.36748100502717,2024-10-16 17h42.50.146237 -0400,
104,block3_trial24_attendleft_leadmasker.wav,0,103,103,103,859.299632399925,,,,,,,,,859.2996981999604,859.3162641999079,2.0162330000894144,865.1547976000002,865.1548085999675,865.1710802000016,865.1710802000016,866.7733981999336,"['1', '3', '1']","[0.7765664999606088, 1.2079186999471858]","[0.1601858000503853, 0.17652910004835576]",1,3,1,718,001,2024-10-16_17h42.38.335,Trial_mult,2023.2.1,60.36748100502717,2024-10-16 17h42.50.146237 -0400,
105,block3_trial25_attendright_leadmasker.wav,0,104,104,104,866.789655999979,,,,,,,,,866.7897337999893,866.805534999934,2.0166735999519005,872.6436774999602,872.6436876999214,872.6602108000079,872.6602108000079,873.7959776999196,"['1', '1', '1']","[0.38362119998782873, 0.7507321999873966]","[0.12873900006525218, 0.12967170006595552]",1,1,1,718,001,2024-10-16_17h42.38.335,Trial_mult,2023.2.1,60.36748100502717,2024-10-16 17h42.50.146237 -0400,
106,block3_trial26_attendright_leadtarget.wav,0,105,105,105,873.8111801999621,,,,,,,,,873.8112337999046,873.8277386999689,2.0169494000729173,879.6501122999471,879.6501225999091,879.6662521999096,879.6662521999096,880.8350368000101,"['1', '1', '1']","[0.3779745000647381, 0.7767625000560656]","[0.09475219994783401, 0.12083639996126294]",1,1,1,718,001,2024-10-16_17h42.38.335,Trial_mult,2023.2.1,60.36748100502717,2024-10-16 17h42.50.146237 -0400,
107,block3_trial27_attendleft_leadtarget.wav,0,106,106,106,880.8508680999512,,,,,,,,,880.8509407999227,880.8668689000187,2.0165743000106886,886.7055396999931,886.7055506999604,886.7220709999092,886.7220709999092,887.7905880999751,"['1', '2', '2']","[0.3213296999456361, 0.6900313999503851]","[0.15224389999639243, 0.12041149998549372]",1,2,2,718,001,2024-10-16_17h42.38.335,Trial_mult,2023.2.1,60.36748100502717,2024-10-16 17h42.50.146237 -0400,
108,block3_trial28_attendleft_leadmasker.wav,0,107,107,107,887.805903899949,,,,,,,,,887.8059744999046,887.8223997999448,2.0163844999624416,893.6778845000081,893.6778955999762,893.6943314999808,893.6943314999808,896.1804566999199,"['3', '3', '1']","[1.2134538000682369, 1.949876300059259]","[0.20004080003127456, 0.18333979998715222]",3,3,1,718,001,2024-10-16_17h42.38.335,Trial_mult,2023.2.1,60.36748100502717,2024-10-16 17h42.50.146237 -0400,
109,block3_trial29_attendleft_leadtarget.wav,0,108,108,108,896.1963271999266,,,,,,,,,896.19639930001,896.2128743999638,2.0170849000569433,902.0343039999716,902.0343150999397,902.0511961999582,902.0511961999582,903.803050699993,"['2', '3', '3']","[0.505153700010851, 1.0717887000646442]","[0.11870019999332726, 0.17668579996097833]",2,3,3,718,001,2024-10-16_17h42.38.335,Trial_mult,2023.2.1,60.36748100502717,2024-10-16 17h42.50.146237 -0400,
110,block3_trial30_attendright_leadtarget.wav,0,109,109,109,903.819138999912,,,,,,,,,903.8192152999109,903.8354390999302,2.0168417000677437,909.690803800011,909.6908152999822,909.7067209999077,909.7067209999077,911.5434433999471,"['2', '2', '3']","[0.7042150000343099, 1.3926799000473693]","[0.14492130000144243, 0.12033399997744709]",2,2,3,718,001,2024-10-16_17h42.38.335,Trial_mult,2023.2.1,60.36748100502717,2024-10-16 17h42.50.146237 -0400,
111,block3_trial31_attendleft_leadmasker.wav,0,110,110,110,911.5581479999237,,,,,,,,,911.5582074999111,911.5747382999398,2.016161200008355,917.3964190999977,917.3964293999597,917.4129430999747,917.4129430999747,919.4326167999534,"['2', '2', '3']","[0.6949895999860018, 1.510570100042969]","[0.1357443000888452, 0.1041937000118196]",2,2,3,718,001,2024-10-16_17h42.38.335,Trial_mult,2023.2.1,60.36748100502717,2024-10-16 17h42.50.146237 -0400,
112,block3_trial32_attendleft_leadtarget.wav,0,111,111,111,919.4482647000114,,,,,,,,,919.4483286999166,919.4644870999036,2.016653100028634,925.3032707999228,925.3032815000042,925.3198569999076,925.3198569999076,926.7719774999423,"['2', '1', '2']","[0.48319549998268485, 0.9710778999142349]","[0.14416190003976226, 0.16881770000327379]",2,1,2,718,001,2024-10-16_17h42.38.335,Trial_mult,2023.2.1,60.36748100502717,2024-10-16 17h42.50.146237 -0400,
113,block3_trial33_attendleft_leadtarget.wav,0,112,112,112,926.7879649999086,,,,,,,,,926.7880420999136,926.8038194999099,2.016775699914433,932.6419374999823,932.6419479999458,932.6584902999457,932.6584902999457,933.6448535999516,"['3', '3', '1']","[0.14479420008137822, 0.545613200054504]","[0.13586909999139607, 0.1671844000229612]",3,3,1,718,001,2024-10-16_17h42.38.335,Trial_mult,2023.2.1,60.36748100502717,2024-10-16 17h42.50.146237 -0400,
114,block3_trial34_attendright_leadtarget.wav,0,113,113,113,933.6594537999481,,,,,,,,,933.6596483999165,933.6765045999782,2.0154632999328896,939.5143684999784,939.5143787999405,939.5315586999059,939.5315586999059,940.9662084999727,"['3', '1', '3']","[0.4798911999678239, 1.0157842999324203]","[0.16838100005406886, 0.17556330002844334]",3,1,3,718,001,2024-10-16_17h42.38.335,Trial_mult,2023.2.1,60.36748100502717,2024-10-16 17h42.50.146237 -0400,
115,block3_trial35_attendleft_leadmasker.wav,0,114,114,114,940.9818725999212,,,,,,,,,940.9819432999939,940.9985461999895,2.017075899988413,946.8539837999269,946.8539945000084,946.8703602999449,946.8703602999449,949.0896547000157,"['2', '1', '1']","[1.1978788999840617, 1.7249467999208719]","[0.1591133999172598, 0.15323400008492172]",2,1,1,718,001,2024-10-16_17h42.38.335,Trial_mult,2023.2.1,60.36748100502717,2024-10-16 17h42.50.146237 -0400,
116,block3_trial36_attendleft_leadmasker.wav,0,115,115,115,949.1049251999939,,,,,,,,,949.1049867999973,949.1216275999323,2.0169356000842527,954.9770247999113,954.9770350999897,954.9935090999352,954.9935090999352,956.278998499969,"['3', '3', '3']","[0.5614620000123978, 0.9380277999443933]","[0.13645250000990927, 0.1361938000191003]",3,3,3,718,001,2024-10-16_17h42.38.335,Trial_mult,2023.2.1,60.36748100502717,2024-10-16 17h42.50.146237 -0400,
117,block3_trial37_attendright_leadtarget.wav,0,116,116,116,956.2940559999552,,,,,,,,,956.2941206999822,956.3108118999517,2.0162013999652117,962.1659899000078,962.1660001999699,962.1822486999445,962.1822486999445,963.5179841999197,"['2', '2', '2']","[0.7742266000714153, 1.0767548000440001]","[0.11855959997046739, 0.1122054000152275]",2,2,2,718,001,2024-10-16_17h42.38.335,Trial_mult,2023.2.1,60.36748100502717,2024-10-16 17h42.50.146237 -0400,
118,block3_trial38_attendleft_leadtarget.wav,0,117,117,117,963.5331780000124,,,,,,,,,963.5332360999892,963.549973599962,2.0165224000811577,969.3716806999873,969.3716904999455,969.3883057999192,969.3883057999192,971.2406642999267,"['1', '2', '3']","[0.9028455000370741, 1.415473400033079]","[0.12004509998951107, 0.14407079992815852]",1,2,3,718,001,2024-10-16_17h42.38.335,Trial_mult,2023.2.1,60.36748100502717,2024-10-16 17h42.50.146237 -0400,
119,block3_trial39_attendleft_leadmasker.wav,0,118,118,118,971.2559673999203,,,,,,,,,971.2560207999777,971.2734334999695,2.016918099950999,977.12797209993,977.1279831000138,977.1450605000136,977.1450605000136,979.5642723999918,"['2', '3', '3']","[1.0899643000448123, 1.778381900046952]","[0.11193929996807128, 0.20012980001047254]",2,3,3,718,001,2024-10-16_17h42.38.335,Trial_mult,2023.2.1,60.36748100502717,2024-10-16 17h42.50.146237 -0400,
120,block3_trial40_attendleft_leadmasker.wav,0,119,119,119,979.5798604999436,,,,,,,,,979.5799375999486,979.5963440999622,2.0164631999796256,985.4352351999842,985.4352476999629,985.451444700011,985.451444700011,986.8196943999501,"['1', '2', '2']","[0.5194964000256732, 0.9606847000541165]","[0.18438109999988228, 0.12818649993278086]",1,2,2,718,001,2024-10-16_17h42.38.335,Trial_mult,2023.2.1,60.36748100502717,2024-10-16 17h42.50.146237 -0400,
121,block4_trial1_attendright_leadmasker.wav,0,120,120,120,986.8351740000071,,,,,,,,,1004.2992873999756,1004.3158879999537,2.0184187999693677,1010.1376330999192,1010.1376440000022,1010.1540206999052,1010.1540206999052,1011.4060341999866,"['1', '1', '1']","[0.7455391000257805, 1.0015711999731138]","[0.12827330001164228, 0.1041193000273779]",1,1,1,718,001,2024-10-16_17h42.38.335,Trial_mult,2023.2.1,60.36748100502717,2024-10-16 17h42.50.146237 -0400,
122,block4_trial2_attendleft_leadmasker.wav,0,121,121,121,1011.4216929000104,,,,,,,,,1011.4217457999475,1011.4383544999873,2.01710090006236,1017.293750599958,1017.2937603999162,1017.3101042999187,1017.3101042999187,1019.4968447999563,"['1', '3', '2']","[0.6695378000149503, 1.7490532000083476]","[0.1357770999893546, 0.16795209993142635]",1,3,2,718,001,2024-10-16_17h42.38.335,Trial_mult,2023.2.1,60.36748100502717,2024-10-16 17h42.50.146237 -0400,
123,block4_trial3_attendright_leadtarget.wav,0,122,122,122,1019.5116190999979,,,,,,,,,1019.5116853999207,1019.5284320999635,2.016339899972081,1025.3827830000082,1025.3827932999702,1025.3998380999546,1025.3998380999546,1027.6025869000005,"['1', '2', '2']","[0.8832530000945553, 1.7394562000408769]","[0.16122429992537946, 0.13719080004375428]",1,2,2,718,001,2024-10-16_17h42.38.335,Trial_mult,2023.2.1,60.36748100502717,2024-10-16 17h42.50.146237 -0400,
124,block4_trial4_attendright_leadmasker.wav,0,123,123,123,1027.618129499955,,,,,,,,,1027.6181959999958,1027.634866999928,2.016666100011207,1033.4571333999047,1033.4571438999847,1033.4734984999523,1033.4734984999523,1035.6257688999176,"['1', '2', '1']","[1.2750169000355527, 1.7454501000465825]","[0.1350901999976486, 0.144899099948816]",1,2,1,718,001,2024-10-16_17h42.38.335,Trial_mult,2023.2.1,60.36748100502717,2024-10-16 17h42.50.146237 -0400,
125,block4_trial5_attendright_leadmasker.wav,0,124,124,124,1035.6412400999106,,,,,,,,,1035.6413064999506,1035.6578983999789,2.0169342999579385,1041.495833199937,1041.4958439999027,1041.5127079999074,1041.5127079999074,1042.5648671999807,"['3', '3', '2']","[0.37847490003332496, 0.7080122999614105]","[0.15994059992954135, 0.14265749999321997]",3,3,2,718,001,2024-10-16_17h42.38.335,Trial_mult,2023.2.1,60.36748100502717,2024-10-16 17h42.50.146237 -0400,
126,block4_trial6_attendleft_leadmasker.wav,0,125,125,125,1042.5800557999173,,,,,,,,,1042.5801087999716,1042.5966382999904,2.017046399996616,1048.4524292999413,1048.452439699904,1048.4682232999476,1048.4682232999476,1050.371481499984,"['1', '2', '3']","[0.7431757000740618, 1.4560875000897795]","[0.11997050000354648, 0.16689279989805073]",1,2,3,718,001,2024-10-16_17h42.38.335,Trial_mult,2023.2.1,60.36748100502717,2024-10-16 17h42.50.146237 -0400,
127,block4_trial7_attendleft_leadtarget.wav,0,126,126,126,1050.3862743999343,,,,,,,,,1050.3863273999887,1050.403202699963,2.016411899938248,1056.258716100012,1056.2587272999808,1056.2748508999357,1056.2748508999357,1057.5933057999937,"['3', '2', '2']","[0.472853499930352, 0.9139851999934763]","[0.16749669995624572, 0.12729699991177768]",3,2,2,718,001,2024-10-16_17h42.38.335,Trial_mult,2023.2.1,60.36748100502717,2024-10-16 17h42.50.146237 -0400,
128,block4_trial8_attendright_leadtarget.wav,0,127,127,127,1057.608716799994,,,,,,,,,1057.6087841999251,1057.6256315999199,2.0166149999713525,1063.4469683999196,1063.4469787999988,1063.4633316999534,1063.4633316999534,1064.3819364999654,"['2', '2', '3']","[0.22798999992664903, 0.5729040999431163]","[0.09631380008067936, 0.1268380000256002]",2,2,3,718,001,2024-10-16_17h42.38.335,Trial_mult,2023.2.1,60.36748100502717,2024-10-16 17h42.50.146237 -0400,
129,block4_trial9_attendright_leadmasker.wav,0,128,128,128,1064.3974929999094,,,,,,,,,1064.3975495999912,1064.4142272999743,2.016858300077729,1070.236327099963,1070.236337899929,1070.2528300000122,1070.2528300000122,1071.7213702999288,"['2', '1', '1']","[0.5989821000257507, 1.0383369999472052]","[0.13601539994124323, 0.14433889999054372]",2,1,1,718,001,2024-10-16_17h42.38.335,Trial_mult,2023.2.1,60.36748100502717,2024-10-16 17h42.50.146237 -0400,
130,block4_trial10_attendright_leadtarget.wav,0,129,129,129,1071.7371473999228,,,,,,,,,1071.7372207000153,1071.7534332999494,2.0167204999597743,1077.5757875000127,1077.5757986999815,1077.5922995000146,1077.5922995000146,1078.8103312000167,"['3', '2', '3']","[0.315230599953793, 0.7874224999686703]","[0.14398809999693185, 0.14359330001752824]",3,2,3,718,001,2024-10-16_17h42.38.335,Trial_mult,2023.2.1,60.36748100502717,2024-10-16 17h42.50.146237 -0400,
131,block4_trial11_attendright_leadmasker.wav,0,130,130,130,1078.825665900018,,,,,,,,,1078.8257212999742,1078.842444299953,2.016604899894446,1084.6813650999684,1084.6813749999274,1084.6980749999639,1084.6980749999639,1086.6331595999654,"['3', '1', '2']","[0.7773580000502989, 1.3371851000702009]","[0.18437839997932315, 0.17673119995743036]",3,1,2,718,001,2024-10-16_17h42.38.335,Trial_mult,2023.2.1,60.36748100502717,2024-10-16 17h42.50.146237 -0400,
132,block4_trial12_attendleft_leadmasker.wav,0,131,131,131,1086.6488346999977,,,,,,,,,1086.64890619996,1086.6653628000058,2.0169185999548063,1092.5209914000006,1092.521002399968,1092.5367754999315,1092.5367754999315,1094.0725242999615,"['1', '3', '1']","[0.6666778000071645, 1.1065369999269024]","[0.16772059991490096, 0.19167860003653914]",1,3,1,718,001,2024-10-16_17h42.38.335,Trial_mult,2023.2.1,60.36748100502717,2024-10-16 17h42.50.146237 -0400,
133,block4_trial13_attendleft_leadmasker.wav,0,132,132,132,1094.0879346999573,,,,,,,,,1094.0879852999933,1094.1049329999369,2.016769399982877,1099.9606739999726,1099.9606865999522,1099.9766177999554,1099.9766177999554,1100.9448223999934,"['3', '3', '3']","[0.14751820010133088, 0.5394900001119822]","[0.15910659998189658, 0.15921199996955693]",3,3,3,718,001,2024-10-16_17h42.38.335,Trial_mult,2023.2.1,60.36748100502717,2024-10-16 17h42.50.146237 -0400,
134,block4_trial14_attendleft_leadmasker.wav,0,133,133,133,1100.960234099999,,,,,,,,,1100.9602856999263,1100.9773309999146,2.0166527000255883,1106.8321186999092,1106.8321294999914,1106.848713699961,1106.848713699961,1108.300753199961,"['3', '3', '1']","[0.6912466998910531, 1.0912967999465764]","[0.15925240004435182, 0.18328460003249347]",3,3,1,718,001,2024-10-16_17h42.38.335,Trial_mult,2023.2.1,60.36748100502717,2024-10-16 17h42.50.146237 -0400,
135,block4_trial15_attendleft_leadtarget.wav,0,134,134,134,1108.3167775999755,,,,,,,,,1108.3168528999668,1108.3329868,2.016607999918051,1114.171330299927,1114.1713413000107,1114.1879853999708,1114.1879853999708,1115.1234529999783,"['1', '2', '1']","[0.1752707000123337, 0.5601905999938026]","[0.13688880007248372, 0.15190590010024607]",1,2,1,718,001,2024-10-16_17h42.38.335,Trial_mult,2023.2.1,60.36748100502717,2024-10-16 17h42.50.146237 -0400,
136,block4_trial16_attendright_leadtarget.wav,0,135,135,135,1115.1386189999757,,,,,,,,,1115.1386877999175,1115.155181500013,2.0160548000130802,1120.9934880000073,1120.9934982999694,1121.0101270999294,1121.0101270999294,1121.7113616999704,"['3', '3', '3']","[-0.07098860002588481, 0.28995849995408207]","[0.1286282999208197, 0.14405989996157587]",3,3,3,718,001,2024-10-16_17h42.38.335,Trial_mult,2023.2.1,60.36748100502717,2024-10-16 17h42.50.146237 -0400,
137,block4_trial17_attendleft_leadmasker.wav,0,136,136,136,1121.726925099967,,,,,,,,,1121.726978899911,1121.7436037999578,2.0166791999945417,1127.5821388999466,1127.5821496999124,1127.5982188999187,1127.5982188999187,1128.933732699952,"['3', '2', '3']","[0.5100647000363097, 0.9247354000108317]","[0.16740939998999238, 0.1447943999664858]",3,2,3,718,001,2024-10-16_17h42.38.335,Trial_mult,2023.2.1,60.36748100502717,2024-10-16 17h42.50.146237 -0400,
138,block4_trial18_attendright_leadmasker.wav,0,137,137,137,1128.9492562999949,,,,,,,,,1128.949310899945,1128.9663407999324,2.0168870000634342,1134.7878979999805,1134.7879077999387,1134.8049669999164,1134.8049669999164,1135.740041699959,"['3', '3', '2']","[0.3028507000999525, 0.6141522000543773]","[0.1271431999048218, 0.15216149995103478]",3,3,2,718,001,2024-10-16_17h42.38.335,Trial_mult,2023.2.1,60.36748100502717,2024-10-16 17h42.50.146237 -0400,
139,block4_trial19_attendright_leadtarget.wav,0,138,138,138,1135.7553944999818,,,,,,,,,1135.7554602000164,1135.7724979999475,2.0159967000363395,1141.6102789000142,1141.61028969998,1141.6267494999338,1141.6267494999338,1142.6783786999295,"['3', '3', '3']","[0.22440870001446456, 0.633041900000535]","[0.11981549998745322, 0.16807929996866733]",3,3,3,718,001,2024-10-16_17h42.38.335,Trial_mult,2023.2.1,60.36748100502717,2024-10-16 17h42.50.146237 -0400,
140,block4_trial20_attendleft_leadtarget.wav,0,139,139,139,1142.6937249000184,,,,,,,,,1142.6937768999487,1142.7104550999356,2.0167903000256047,1148.5322962999344,1148.5323068000143,1148.5488145999843,1148.5488145999843,1150.3345050999196,"['2', '3', '1']","[0.6391673000762239, 1.3501943000592291]","[0.16038170002866536, 0.13726879993919283]",2,3,1,718,001,2024-10-16_17h42.38.335,Trial_mult,2023.2.1,60.36748100502717,2024-10-16 17h42.50.146237 -0400,
141,block4_trial21_attendleft_leadtarget.wav,0,140,140,140,1150.349936399958,,,,,,,,,1150.3499944999348,1150.3664937999565,2.016680800006725,1156.1881896000123,1156.188201299985,1156.2047627000138,1156.2047627000138,1157.373477099929,"['2', '3', '2']","[0.3517303999979049, 0.798832600004971]","[0.12716659996658564, 0.15325279999524355]",2,3,2,718,001,2024-10-16_17h42.38.335,Trial_mult,2023.2.1,60.36748100502717,2024-10-16 17h42.50.146237 -0400,
142,block4_trial22_attendright_leadtarget.wav,0,141,141,141,1157.3890242999187,,,,,,,,,1157.3890943999868,1157.4056746999267,2.016638800036162,1163.2605710999342,1163.2605820000172,1163.277104799985,1163.277104799985,1164.412617099937,"['1', '2', '3']","[0.4540668000699952, 0.8060437000822276]","[0.1453997999196872, 0.15200759994331747]",1,2,3,718,001,2024-10-16_17h42.38.335,Trial_mult,2023.2.1,60.36748100502717,2024-10-16 17h42.50.146237 -0400,
143,block4_trial23_attendleft_leadmasker.wav,0,142,142,142,1164.4278826999944,,,,,,,,,1164.427942899987,1164.444490499911,2.0165871999925002,1170.2663164999103,1170.2663269999903,1170.2836681999033,1170.2836681999033,1172.0351032000035,"['3', '3', '2']","[0.7916857999516651, 1.2323553999885917]","[0.1445538999978453, 0.1593101000180468]",3,3,2,718,001,2024-10-16_17h42.38.335,Trial_mult,2023.2.1,60.36748100502717,2024-10-16 17h42.50.146237 -0400,
144,block4_trial24_attendright_leadmasker.wav,0,143,143,143,1172.0506152999587,,,,,,,,,1172.0506836000131,1172.0674878999125,2.0165239000925794,1177.922306299908,1177.9223166999873,1177.9393039999995,1177.9393039999995,1182.0420978999464,"['2', '2']","[0.5995820999378338, 0.9365603999467567]","[0.136153900064528, 0.13521900004707277]",2,2,NA,718,001,2024-10-16_17h42.38.335,Trial_mult,2023.2.1,60.36748100502717,2024-10-16 17h42.50.146237 -0400,
145,block4_trial25_attendleft_leadtarget.wav,0,144,144,144,1182.0588216999313,,,,,,,,,1182.0588825999293,1182.0754065999063,2.0242530000396073,1187.9141513999784,1187.914162699948,1187.9307285000104,1187.9307285000104,1189.3822881999658,"['1', '2', '2']","[0.4015639000572264, 1.0414063000353053]","[0.15104629995767027, 0.15198769990820438]",1,2,2,718,001,2024-10-16_17h42.38.335,Trial_mult,2023.2.1,60.36748100502717,2024-10-16 17h42.50.146237 -0400,
146,block4_trial26_attendright_leadtarget.wav,0,145,145,145,1189.3978430000134,,,,,,,,,1189.397908899933,1189.414695699932,2.016723799984902,1195.2536753999302,1195.253687499906,1195.270262899925,1195.270262899925,1196.3882725000149,"['1', '2', '3']","[0.3653704999014735, 0.7415086999535561]","[0.13542290008626878, 0.14347629994153976]",1,2,3,718,001,2024-10-16_17h42.38.335,Trial_mult,2023.2.1,60.36748100502717,2024-10-16 17h42.50.146237 -0400,
147,block4_trial27_attendright_leadmasker.wav,0,146,146,146,1196.403651200002,,,,,,,,,1196.40371949994,1196.4202647999628,2.016489699948579,1202.2587526999414,1202.2587632999057,1202.2760914999526,1202.2760914999526,1205.111950099934,"['3', '2', '1']","[1.7509992000414059, 2.2628802000544965]","[0.12852939998265356, 0.10420199995860457]",3,2,1,718,001,2024-10-16_17h42.38.335,Trial_mult,2023.2.1,60.36748100502717,2024-10-16 17h42.50.146237 -0400,
148,block4_trial28_attendleft_leadtarget.wav,0,147,147,147,1205.127119199955,,,,,,,,,1205.1271753999172,1205.143766199937,2.016668700031005,1210.9988570999121,1210.9988678999944,1211.0152093999786,1211.0152093999786,1213.5517293999437,"['1', '2', '3']","[1.675774300005287, 2.1411973000504076]","[0.13686650001909584, 0.14290760003495961]",1,2,3,718,001,2024-10-16_17h42.38.335,Trial_mult,2023.2.1,60.36748100502717,2024-10-16 17h42.50.146237 -0400,
149,block4_trial29_attendright_leadmasker.wav,0,148,148,148,1213.5678817000007,,,,,,,,,1213.567950299941,1213.5840207999572,2.0169963999651372,1219.4389163999585,1219.438926899922,1219.4561702999054,1219.4561702999054,1222.1254924999084,"['3', '1', '3']","[1.1068387000123039, 1.6840156000107527]","[0.1847457999829203, 0.18401069997344166]",3,1,3,718,001,2024-10-16_17h42.38.335,Trial_mult,2023.2.1,60.36748100502717,2024-10-16 17h42.50.146237 -0400,
150,block4_trial30_attendright_leadtarget.wav,0,149,149,149,1222.14083509997,,,,,,,,,1222.14089099993,1222.15764999995,2.0166605000849813,1227.9956364999525,1227.995646999916,1228.0122775000054,1228.0122775000054,1229.0645448999712,"['3', '3', '2']","[0.22347620001528412, 0.6386754000559449]","[0.16043329995591193, 0.17722229997161776]",3,3,2,718,001,2024-10-16_17h42.38.335,Trial_mult,2023.2.1,60.36748100502717,2024-10-16 17h42.50.146237 -0400,
151,block4_trial31_attendleft_leadtarget.wav,0,150,150,150,1229.0799035999225,,,,,,,,,1229.079963499913,1229.0965771999909,2.0166405000491068,1234.951232399908,1234.9512431999901,1234.9678415999515,1234.9678415999515,1236.1701708999462,"['1', '1', '1']","[0.3551867000060156, 0.812170600052923]","[0.12016580009367317, 0.09641030000057071]",1,1,1,718,001,2024-10-16_17h42.38.335,Trial_mult,2023.2.1,60.36748100502717,2024-10-16 17h42.50.146237 -0400,
152,block4_trial32_attendright_leadtarget.wav,0,151,151,151,1236.185582099948,,,,,,,,,1236.1856507000048,1236.2022748999298,2.0164577999385074,1242.0579122999916,1242.057925399975,1242.0741814000066,1242.0741814000066,1243.2423006999306,"['2', '3', '3']","[0.3292039999505505, 0.7367345000384375]","[0.15284820005763322, 0.16026579996105283]",2,3,3,718,001,2024-10-16_17h42.38.335,Trial_mult,2023.2.1,60.36748100502717,2024-10-16 17h42.50.146237 -0400,
153,block4_trial33_attendright_leadmasker.wav,0,152,152,152,1243.2578162999125,,,,,,,,,1243.257881599944,1243.2744298999896,2.0167712999973446,1249.1126772999996,1249.1126870999578,1249.12914669991,1249.12914669991,1251.2153854999924,"['3', '2', '1']","[1.145918200025335, 1.666913100052625]","[0.17718819994479418, 0.1591338999569416]",3,2,1,718,001,2024-10-16_17h42.38.335,Trial_mult,2023.2.1,60.36748100502717,2024-10-16 17h42.50.146237 -0400,
154,block4_trial34_attendleft_leadtarget.wav,0,153,153,153,1251.230830000015,,,,,,,,,1251.2308834999567,1251.2477305999491,2.017007900052704,1257.1026127999648,1257.1026236999314,1257.1190611999482,1257.1190611999482,1259.906365599949,"['3', '2', '2']","[1.0526226001093164, 1.7640666000079364]","[0.1673449999652803, 0.11192410008516163]",3,2,2,718,001,2024-10-16_17h42.38.335,Trial_mult,2023.2.1,60.36748100502717,2024-10-16 17h42.50.146237 -0400,
155,block4_trial35_attendleft_leadmasker.wav,0,154,154,154,1259.9215351999737,,,,,,,,,1259.9216034999117,1259.9385681999847,2.0160503000952303,1265.7932732999325,1265.7932856999105,1265.8097335000057,1265.8097335000057,1266.9446911999257,"['2', '2', '3']","[0.49028879997786134, 0.8254851000383496]","[0.11915919999592006, 0.13597960001789033]",2,2,3,718,001,2024-10-16_17h42.38.335,Trial_mult,2023.2.1,60.36748100502717,2024-10-16 17h42.50.146237 -0400,
156,block4_trial36_attendright_leadtarget.wav,0,155,155,155,1266.9605835999828,,,,,,,,,1266.9606738999719,1266.9772184999892,2.0168385999277234,1272.7983326999238,1272.7983428000007,1272.8147847999353,1272.8147847999353,1273.9004477999406,"['3', '3', '2']","[0.23644859995692968, 0.6683476000325754]","[0.14395470009185374, 0.17611709993798286]",3,3,2,718,001,2024-10-16_17h42.38.335,Trial_mult,2023.2.1,60.36748100502717,2024-10-16 17h42.50.146237 -0400,
157,block4_trial37_attendleft_leadtarget.wav,0,156,156,156,1273.915741899982,,,,,,,,,1273.9157963999314,1273.9325221999316,2.0168912999797612,1279.7711295000045,1279.7711393999634,1279.7881466000108,1279.7881466000108,1280.8558144000126,"['1', '1', '3']","[0.5031443999614567, 0.799977199989371]","[0.11971840006299317, 0.1431758999824524]",1,1,3,718,001,2024-10-16_17h42.38.335,Trial_mult,2023.2.1,60.36748100502717,2024-10-16 17h42.50.146237 -0400,
158,block4_trial38_attendleft_leadmasker.wav,0,157,157,157,1280.8716074000113,,,,,,,,,1280.8716804999858,1280.8880970999599,2.017035999917425,1286.7430484999204,1286.7430590000004,1286.7595259000082,1286.7595259000082,1288.262659800006,"['1', '3', '1']","[0.37275820004288107, 1.0444398999679834]","[0.16758139990270138, 0.1751012000022456]",1,3,1,718,001,2024-10-16_17h42.38.335,Trial_mult,2023.2.1,60.36748100502717,2024-10-16 17h42.50.146237 -0400,
159,block4_trial39_attendleft_leadmasker.wav,0,158,158,158,1288.2775203000056,,,,,,,,,1288.2776012999238,1288.2943044999847,2.0156691999873146,1294.1157244999195,1294.1157351000002,1294.131943400018,1294.131943400018,1296.5352729000151,"['2', '1', '2']","[1.2244777000742033, 1.935800199978985]","[0.18357789993751794, 0.12765979999676347]",2,1,2,718,001,2024-10-16_17h42.38.335,Trial_mult,2023.2.1,60.36748100502717,2024-10-16 17h42.50.146237 -0400,
160,block4_trial40_attendleft_leadtarget.wav,0,159,159,159,1296.5505058999406,,,,,,,,,1296.5505577999866,1296.5672777999425,2.0166022999910638,1302.3888453999534,1302.3888564999215,1302.4056765999412,1302.4056765999412,1303.741094899946,"['2', '1', '3']","[0.5737130000488833, 0.941295100026764]","[0.1275999000063166, 0.16856090002693236]",2,1,3,718,001,2024-10-16_17h42.38.335,Trial_mult,2023.2.1,60.36748100502717,2024-10-16 17h42.50.146237 -0400,
161,block5_trial1_attendleft_leadtarget.wav,0,160,160,160,1303.756393999909,,,,,,,,,1321.1042516999878,1321.1202811999246,2.018458000035025,1326.958405299927,1326.9584164000116,1326.9748151999665,1326.9748151999665,1327.9439046999905,"['3', '2', '2']","[0.21320539992302656, 0.6611005999147892]","[0.18422529997769743, 0.12053220008965582]",3,2,2,718,001,2024-10-16_17h42.38.335,Trial_mult,2023.2.1,60.36748100502717,2024-10-16 17h42.50.146237 -0400,
162,block5_trial2_attendleft_leadmasker.wav,0,161,161,161,1327.9592109000077,,,,,,,,,1327.9592725000111,1327.975996699999,2.0163412000983953,1333.8314794999314,1333.831490200013,1333.8476872999454,1333.8476872999454,1335.032710099942,"['3', '2', '2']","[0.49174890003632754, 0.8592944000847638]","[0.13714710006024688, 0.12911600002553314]",3,2,2,718,001,2024-10-16_17h42.38.335,Trial_mult,2023.2.1,60.36748100502717,2024-10-16 17h42.50.146237 -0400,
163,block5_trial3_attendleft_leadtarget.wav,0,162,162,162,1335.047988299979,,,,,,,,,1335.048041599919,1335.0650752999354,2.0168879999546334,1340.8867788999341,1340.8867891000118,1340.9032732999185,1340.9032732999185,1341.8548973000143,"['3', '3', '3']","[0.18810789997223765, 0.5880261999554932]","[0.11321400001179427, 0.127632400020957]",3,3,3,718,001,2024-10-16_17h42.38.335,Trial_mult,2023.2.1,60.36748100502717,2024-10-16 17h42.50.146237 -0400,
164,block5_trial4_attendleft_leadtarget.wav,0,163,163,163,1341.8703302999493,,,,,,,,,1341.8703864999115,1341.8868051000172,2.0166964000090957,1347.7089065000182,1347.7089162999764,1347.7255356999813,1347.7255356999813,1348.7938177000033,"['2', '1', '3']","[0.4455391999799758, 0.7667355000739917]","[0.12794210005085915, 0.10394189995713532]",2,1,3,718,001,2024-10-16_17h42.38.335,Trial_mult,2023.2.1,60.36748100502717,2024-10-16 17h42.50.146237 -0400,
165,block5_trial5_attendleft_leadmasker.wav,0,164,164,164,1348.8092405999778,,,,,,,,,1348.8092975999461,1348.8265907999594,2.0166206000139937,1354.6812320000026,1354.6812435999746,1354.697658799938,1354.697658799938,1355.7661280999891,"['2', '1', '2']","[0.4594742999179289, 0.7855066999327391]","[0.11091829999350011, 0.11322170007042587]",2,1,2,718,001,2024-10-16_17h42.38.335,Trial_mult,2023.2.1,60.36748100502717,2024-10-16 17h42.50.146237 -0400,
166,block5_trial6_attendleft_leadtarget.wav,0,165,165,165,1355.7813281000126,,,,,,,,,1355.7813806999475,1355.7981185999233,2.0165993999689817,1361.6367852999829,1361.6367957999464,1361.6537013999186,1361.6537013999186,1363.255610399996,"['3', '1', '2']","[0.5741710999282077, 1.1826374999945983]","[0.1115031000226736, 0.09494239999912679]",3,1,2,718,001,2024-10-16_17h42.38.335,Trial_mult,2023.2.1,60.36748100502717,2024-10-16 17h42.50.146237 -0400,
167,block5_trial7_attendright_leadmasker.wav,0,166,166,166,1363.271177599905,,,,,,,,,1363.2713446000125,1363.2877404999454,2.016319999936968,1369.109224200016,1369.1092353999848,1369.1253694999032,1369.1253694999032,1371.1615414000116,"['2', '1', '2']","[0.8544683000072837, 1.662305900012143]","[0.14332360005937517, 0.1278926000231877]",2,1,2,718,001,2024-10-16_17h42.38.335,Trial_mult,2023.2.1,60.36748100502717,2024-10-16 17h42.50.146237 -0400,
168,block5_trial8_attendright_leadtarget.wav,0,167,167,167,1371.1774256000062,,,,,,,,,1371.1774982999777,1371.1943189000012,2.017345599946566,1377.0156874000095,1377.0156969999662,1377.0321906999452,1377.0321906999452,1378.2514461999526,"['2', '3', '3']","[0.5157124999677762, 0.8434500999283046]","[0.12028170004487038, 0.15333970007486641]",2,3,3,718,001,2024-10-16_17h42.38.335,Trial_mult,2023.2.1,60.36748100502717,2024-10-16 17h42.50.146237 -0400,
169,block5_trial9_attendleft_leadmasker.wav,0,168,168,168,1378.266218499979,,,,,,,,,1378.2662835000083,1378.2827733999584,2.0159965000348166,1384.1216070000082,1384.121618199977,1384.1380483999383,1384.1380483999383,1385.2736411999213,"['3', '2', '2']","[0.2810792999807745, 0.7380834999494255]","[0.14465249993372709, 0.12688250001519918]",3,2,2,718,001,2024-10-16_17h42.38.335,Trial_mult,2023.2.1,60.36748100502717,2024-10-16 17h42.50.146237 -0400,
170,block5_trial10_attendleft_leadtarget.wav,0,169,169,169,1385.2885933999205,,,,,,,,,1385.288659999962,1385.3052381000016,2.016077100066468,1391.1278416999849,1391.1278515999438,1391.144576999941,1391.144576999941,1392.862409699941,"['3', '1', '2']","[0.6994047000771388, 1.2344467000802979]","[0.17512089991942048, 0.14405859995167702]",3,1,2,718,001,2024-10-16_17h42.38.335,Trial_mult,2023.2.1,60.36748100502717,2024-10-16 17h42.50.146237 -0400,
171,block5_trial11_attendleft_leadtarget.wav,0,170,170,170,1392.8781776999822,,,,,,,,,1392.8782545999857,1392.8946414999664,2.016692899982445,1398.7497796999523,1398.7497903999174,1398.7664177999832,1398.7664177999832,1400.151623899932,"['2', '1', '1']","[0.46877329994458705, 0.9501724999863654]","[0.16809920000378042, 0.15884920000098646]",2,1,1,718,001,2024-10-16_17h42.38.335,Trial_mult,2023.2.1,60.36748100502717,2024-10-16 17h42.50.146237 -0400,
172,block5_trial12_attendleft_leadmasker.wav,0,171,171,171,1400.1670058999443,,,,,,,,,1400.1670586999971,1400.183830199996,2.0167598999105394,1406.0393205999862,1406.0393320999574,1406.055686299922,1406.055686299922,1407.2410286999075,"['2', '3', '3']","[0.4681432000361383, 0.8273979999357834]","[0.1525692999130115, 0.16082480002660304]",2,3,3,718,001,2024-10-16_17h42.38.335,Trial_mult,2023.2.1,60.36748100502717,2024-10-16 17h42.50.146237 -0400,
173,block5_trial13_attendleft_leadmasker.wav,0,172,172,172,1407.2562351999804,,,,,,,,,1407.2562907999381,1407.272889200016,2.016583099961281,1413.0951403999934,1413.0951511999592,1413.1113048999105,1413.1113048999105,1414.77997579996,"['1', '3', '2']","[0.34099429997149855, 1.0775992999551818]","[0.1356008000439033, 0.21464540006127208]",1,3,2,718,001,2024-10-16_17h42.38.335,Trial_mult,2023.2.1,60.36748100502717,2024-10-16 17h42.50.146237 -0400,
174,block5_trial14_attendleft_leadmasker.wav,0,173,173,173,1414.7953888999764,,,,,,,,,1414.7954377999995,1414.8128042999888,2.01728919998277,1420.6673639999935,1420.6673738999525,1420.6841888999334,1420.6841888999334,1423.2039917999646,"['1', '2', '1']","[1.4389472999610007, 2.006742400000803]","[0.1611485000466928, 0.14448819996323436]",1,2,1,718,001,2024-10-16_17h42.38.335,Trial_mult,2023.2.1,60.36748100502717,2024-10-16 17h42.50.146237 -0400,
175,block5_trial15_attendright_leadmasker.wav,0,174,174,174,1423.219231099938,,,,,,,,,1423.2193122999743,1423.23636729992,2.017045699991286,1429.0747320000082,1429.074743199977,1429.090834399918,1429.090834399918,1431.1598808999406,"['1', '2', '3']","[1.064764800015837, 1.641425299923867]","[0.17672469990793616, 0.15081650007050484]",1,2,3,718,001,2024-10-16_17h42.38.335,Trial_mult,2023.2.1,60.36748100502717,2024-10-16 17h42.50.146237 -0400,
176,block5_trial16_attendright_leadtarget.wav,0,175,175,175,1431.1753263999708,,,,,,,,,1431.1753816999262,1431.1919776999857,2.016764899948612,1437.01377640001,1437.0137865999714,1437.0303922999883,1437.0303922999883,1437.9993016999215,"['2', '3', '2']","[0.261003699968569, 0.6372941000154242]","[0.1291278999997303, 0.1600524999666959]",2,3,2,718,001,2024-10-16_17h42.38.335,Trial_mult,2023.2.1,60.36748100502717,2024-10-16 17h42.50.146237 -0400,
177,block5_trial17_attendleft_leadmasker.wav,0,176,176,176,1438.0142953000031,,,,,,,,,1438.0143672999693,1438.0309231999563,2.016041100025177,1443.886585499975,1443.8865958999377,1443.903562799911,1443.903562799911,1445.8219998999266,"['1', '2', '1']","[0.900003100046888, 1.4273601999739185]","[0.13596109999343753, 0.14535230002366006]",1,2,1,718,001,2024-10-16_17h42.38.335,Trial_mult,2023.2.1,60.36748100502717,2024-10-16 17h42.50.146237 -0400,
178,block5_trial18_attendright_leadmasker.wav,0,177,177,177,1445.8370995000005,,,,,,,,,1445.8371655999217,1445.8538140999153,2.0169588999124244,1451.692049699952,1451.6920600999147,1451.7083960999735,1451.7083960999735,1454.2119330000132,"['1', '2', '2']","[1.431049299892038, 1.9914771999465302]","[0.12750650011003017, 0.15165050001814961]",1,2,2,718,001,2024-10-16_17h42.38.335,Trial_mult,2023.2.1,60.36748100502717,2024-10-16 17h42.50.146237 -0400,
179,block5_trial19_attendright_leadtarget.wav,0,178,178,178,1454.2271930999123,,,,,,,,,1454.2272508000024,1454.2438371999888,2.0164893999462947,1460.0989512999076,1460.0989614999853,1460.1159058999037,1460.1159058999037,1461.1842790999217,"['1', '2', '3']","[0.4316938000265509, 0.7692387999268249]","[0.1358870998956263, 0.1343027000548318]",1,2,3,718,001,2024-10-16_17h42.38.335,Trial_mult,2023.2.1,60.36748100502717,2024-10-16 17h42.50.146237 -0400,
180,block5_trial20_attendright_leadtarget.wav,0,179,179,179,1461.1993507000152,,,,,,,,,1461.1994044999592,1461.2166868000058,2.016711900010705,1467.0542961999308,1467.0543067000108,1467.0707088999916,1467.0707088999916,1468.1060825999593,"['1', '3', '3']","[0.2845760000636801, 0.6855443000094965]","[0.12798099999781698, 0.15897520002909005]",1,3,3,718,001,2024-10-16_17h42.38.335,Trial_mult,2023.2.1,60.36748100502717,2024-10-16 17h42.50.146237 -0400,
181,block5_trial21_attendleft_leadtarget.wav,0,180,180,180,1468.1217969999416,,,,,,,,,1468.1218577999389,1468.138371399953,2.017072399961762,1473.9772806999972,1473.9772919999668,1473.993580600014,1473.993580600014,1475.0119282999076,"['3', '3', '1']","[0.2986217000288889, 0.6025023999391124]","[0.11994509992655367, 0.1432653000811115]",3,3,1,718,001,2024-10-16_17h42.38.335,Trial_mult,2023.2.1,60.36748100502717,2024-10-16 17h42.50.146237 -0400,
182,block5_trial22_attendright_leadtarget.wav,0,181,181,181,1475.0271770999534,,,,,,,,,1475.0272351999301,1475.0440482000122,2.016512000001967,1480.8991457999218,1480.8991559999995,1480.9159029999282,1480.9159029999282,1483.6021643999266,"['3', '3', '1']","[1.7677490999922156, 2.1593511999817565]","[0.18429100001230836, 0.12849549995735288]",3,3,1,718,001,2024-10-16_17h42.38.335,Trial_mult,2023.2.1,60.36748100502717,2024-10-16 17h42.50.146237 -0400,
183,block5_trial23_attendleft_leadmasker.wav,0,182,182,182,1483.6174461999908,,,,,,,,,1483.6175063999835,1483.634330999921,2.016532100038603,1489.4894176999805,1489.4894274999388,1489.5058581999037,1489.5058581999037,1491.608431099914,"['1', '3', '1']","[1.2181294000474736, 1.7617972999578342]","[0.17611969995778054, 0.15217730007134378]",1,3,1,718,001,2024-10-16_17h42.38.335,Trial_mult,2023.2.1,60.36748100502717,2024-10-16 17h42.50.146237 -0400,
184,block5_trial24_attendleft_leadtarget.wav,0,183,183,183,1491.6238342999713,,,,,,,,,1491.6238952999702,1491.6404791999375,2.0167022000532597,1497.4798969000112,1497.479907299974,1497.496297899983,1497.496297899983,1498.5478965999791,"['2', '2', '3']","[0.4359110000077635, 0.731524100061506]","[0.12674690003041178, 0.1279718999285251]",2,2,3,718,001,2024-10-16_17h42.38.335,Trial_mult,2023.2.1,60.36748100502717,2024-10-16 17h42.50.146237 -0400,
185,block5_trial25_attendright_leadmasker.wav,0,184,184,184,1498.562765599927,,,,,,,,,1498.5628278999357,1498.5795223999303,2.0161534000653774,1504.4342494999291,1504.4342594000045,1504.4507144999225,1504.4507144999225,1508.5541554999072,"['3', '3']","[1.4091959999641404, 2.1443654999602586]","[0.1756329000927508, 0.16086020006332546]",3,3,NA,718,001,2024-10-16_17h42.38.335,Trial_mult,2023.2.1,60.36748100502717,2024-10-16 17h42.50.146237 -0400,
186,block5_trial26_attendleft_leadmasker.wav,0,185,185,185,1508.57091879996,,,,,,,,,1508.571016700007,1508.5875541999703,2.0234034000895917,1514.4261239999905,1514.4261346999556,1514.4427432999946,1514.4427432999946,1515.9614531999687,"['1', '3', '3']","[0.7286734000081196, 1.1850176999578252]","[0.16804849996697158, 0.16776410001330078]",1,3,3,718,001,2024-10-16_17h42.38.335,Trial_mult,2023.2.1,60.36748100502717,2024-10-16 17h42.50.146237 -0400,
187,block5_trial27_attendright_leadmasker.wav,0,186,186,186,1515.9767761999974,,,,,,,,,1515.9768487999681,1515.993436299963,2.0166805000044405,1521.8485194999957,1521.8485303999623,1521.864912000019,1521.864912000019,1523.9178506999742,"['1', '3', '3']","[0.7384299000259489, 1.3540925999404863]","[0.15229399991221726, 0.19207640003878623]",1,3,3,718,001,2024-10-16_17h42.38.335,Trial_mult,2023.2.1,60.36748100502717,2024-10-16 17h42.50.146237 -0400,
188,block5_trial28_attendright_leadmasker.wav,0,187,187,187,1523.9331193999387,,,,,,,,,1523.9331752000144,1523.9501614000183,2.0173159999540076,1529.8047500000102,1529.8047606999753,1529.8211961999768,1529.8211961999768,1531.9741241999436,"['2', '1', '3']","[1.270172099932097, 1.7418662999989465]","[0.2085256000282243, 0.16833339992444962]",2,1,3,718,001,2024-10-16_17h42.38.335,Trial_mult,2023.2.1,60.36748100502717,2024-10-16 17h42.50.146237 -0400,
189,block5_trial29_attendright_leadmasker.wav,0,188,188,188,1531.9894953999901,,,,,,,,,1531.9895467999158,1532.00617529999,2.017015799996443,1537.828364099958,1537.82837439992,1537.8447734999936,1537.8447734999936,1539.0301442999626,"['2', '3', '3']","[0.45566600002348423, 0.8545811000512913]","[0.12742510007228702, 0.15355940000154078]",2,3,3,718,001,2024-10-16_17h42.38.335,Trial_mult,2023.2.1,60.36748100502717,2024-10-16 17h42.50.146237 -0400,
190,block5_trial30_attendright_leadmasker.wav,0,189,189,189,1539.0454113999149,,,,,,,,,1539.045521199936,1539.0621164999902,2.0164537000237033,1544.8834492999595,1544.883459799923,1544.9000543999719,1544.9000543999719,1547.2197547999676,"['2', '3', '3']","[0.8229895000113174, 1.7123572999844328]","[0.1764088999480009, 0.1986940000206232]",2,3,3,718,001,2024-10-16_17h42.38.335,Trial_mult,2023.2.1,60.36748100502717,2024-10-16 17h42.50.146237 -0400,
191,block5_trial31_attendleft_leadtarget.wav,0,190,190,190,1547.2351236999966,,,,,,,,,1547.235177799943,1547.2517784999218,2.0172949999105185,1553.1072042000014,1553.1072148999665,1553.1237153999973,1553.1237153999973,1554.0920806999784,"['2', '2', '3']","[0.33570589998271316, 0.6561173000372946]","[0.13607900007627904, 0.11931059998460114]",2,2,3,718,001,2024-10-16_17h42.38.335,Trial_mult,2023.2.1,60.36748100502717,2024-10-16 17h42.50.146237 -0400,
192,block5_trial32_attendright_leadtarget.wav,0,191,191,191,1554.1074254999403,,,,,,,,,1554.1074913999764,1554.1240371000022,2.0166286999592558,1559.9788799999515,1559.978890499915,1559.9955023999792,1559.9955023999792,1561.0814709999831,"['3', '2', '3']","[0.3043818000005558, 0.71223549998831]","[0.15923860005568713, 0.1681277999887243]",3,2,3,718,001,2024-10-16_17h42.38.335,Trial_mult,2023.2.1,60.36748100502717,2024-10-16 17h42.50.146237 -0400,
193,block5_trial33_attendright_leadmasker.wav,0,192,192,192,1561.0967648999067,,,,,,,,,1561.0968433999224,1561.1130549999652,2.016407400020398,1566.95169659995,1566.951711099944,1566.9686016999185,1566.9686016999185,1569.7712995000184,"['3', '2', '2']","[2.130564199993387, 2.491895699989982]","[0.1768010000232607, 0.1505259999539703]",3,2,2,718,001,2024-10-16_17h42.38.335,Trial_mult,2023.2.1,60.36748100502717,2024-10-16 17h42.50.146237 -0400,
194,block5_trial34_attendright_leadtarget.wav,0,193,193,193,1569.786740200012,,,,,,,,,1569.7868070999393,1569.803378499928,2.016605000011623,1575.6249827999854,1575.6249935999513,1575.6413105999818,1575.6413105999818,1578.2785692999605,"['2', '2', '3']","[1.4905771999619901, 2.202060699928552]","[0.19953710003755987, 0.1439560999860987]",2,2,3,718,001,2024-10-16_17h42.38.335,Trial_mult,2023.2.1,60.36748100502717,2024-10-16 17h42.50.146237 -0400,
195,block5_trial35_attendleft_leadtarget.wav,0,194,194,194,1578.2935581000056,,,,,,,,,1578.2936264999444,1578.3102588999318,2.01622580003459,1584.1324741999852,1584.132484599948,1584.1488015999785,1584.1488015999785,1585.1675401999382,"['2', '1', '1']","[0.18232150003314018, 0.6068075000075623]","[0.14490319998003542, 0.14338190003763884]",2,1,1,718,001,2024-10-16_17h42.38.335,Trial_mult,2023.2.1,60.36748100502717,2024-10-16 17h42.50.146237 -0400,
196,block5_trial36_attendleft_leadmasker.wav,0,195,195,195,1585.1825668999227,,,,,,,,,1585.1826954999706,1585.1998784999596,2.0158687999937683,1591.0542094999691,1591.0542200999334,1591.0707965999609,1591.0707965999609,1592.4231582999928,"['2', '1', '1']","[0.6522237000754103, 1.0201984000159428]","[0.136064299964346, 0.15375830000266433]",2,1,1,718,001,2024-10-16_17h42.38.335,Trial_mult,2023.2.1,60.36748100502717,2024-10-16 17h42.50.146237 -0400,
197,block5_trial37_attendright_leadtarget.wav,0,196,196,196,1592.4384832999203,,,,,,,,,1592.4385567000136,1592.4547299999977,2.016123899957165,1598.2935510999523,1598.2935611999128,1598.3099765999941,1598.3099765999941,1599.9952848999528,"['1', '2', '2']","[0.8449669000692666, 1.3188539000693709]","[0.13784260000102222, 0.1270974000217393]",1,2,2,718,001,2024-10-16_17h42.38.335,Trial_mult,2023.2.1,60.36748100502717,2024-10-16 17h42.50.146237 -0400,
198,block5_trial38_attendright_leadtarget.wav,0,197,197,197,1600.0107266999548,,,,,,,,,1600.0107775999932,1600.0275169999804,2.0168278999626637,1605.8660646999488,1605.8660749999108,1605.882795099984,1605.882795099984,1607.9351284999866,"['1', '2', '2']","[0.4100695999804884, 1.2253140000393614]","[0.1911371999885887, 0.1510495999827981]",1,2,2,718,001,2024-10-16_17h42.38.335,Trial_mult,2023.2.1,60.36748100502717,2024-10-16 17h42.50.146237 -0400,
199,block5_trial39_attendright_leadmasker.wav,0,198,198,198,1607.9504794999957,,,,,,,,,1607.9505303999176,1607.9675390999764,2.016569299972616,1613.8060125999618,1613.8060234999284,1613.822503699921,1613.822503699921,1615.4411176999565,"['2', '3', '2']","[0.5410703999223188, 1.18851090001408]","[0.14412730000913143, 0.19270969997160137]",2,3,2,718,001,2024-10-16_17h42.38.335,Trial_mult,2023.2.1,60.36748100502717,2024-10-16 17h42.50.146237 -0400,
200,block5_trial40_attendright_leadtarget.wav,0,199,199,199,1615.4565254999325,,,,,,,,,1615.4565873999381,1615.4732816999312,2.0166883000638336,1621.3285541000078,1621.328564699972,1621.3451394999865,1621.3451394999865,1624.3316694999812,"['2', '3', '1']","[1.761932700057514, 2.5858718000818044]","[0.16839420003816485, 0.16882719995919615]",2,3,1,718,001,2024-10-16_17h42.38.335,Trial_mult,2023.2.1,60.36748100502717,2024-10-16 17h42.50.146237 -0400,
201,block6_trial1_attendright_leadmasker.wav,0,200,200,200,1624.3470202999888,,,,,,,,,1652.786933299969,1652.8031879999908,2.0184303999412805,1658.6582445999375,1658.6582557999063,1658.6746190999402,1658.6746190999402,1659.6604740999173,"['2', '2', '3']","[0.40172209998127073, 0.7138872999930754]","[0.143235299969092, 0.10246520000509918]",2,2,3,718,001,2024-10-16_17h42.38.335,Trial_mult,2023.2.1,60.36748100502717,2024-10-16 17h42.50.146237 -0400,
202,block6_trial2_attendright_leadmasker.wav,0,201,201,201,1659.6757438000059,,,,,,,,,1659.6758165999781,1659.6923512999201,2.0161986000603065,1665.530295399949,1665.530305699911,1665.5467927999562,1665.5467927999562,1667.6331330999965,"['2', '1', '1']","[0.4245010999729857, 1.0731084999861196]","[0.14426480000838637, 0.15168919996358454]",2,1,1,718,001,2024-10-16_17h42.38.335,Trial_mult,2023.2.1,60.36748100502717,2024-10-16 17h42.50.146237 -0400,
203,block6_trial3_attendright_leadmasker.wav,0,202,202,202,1667.648607500014,,,,,,,,,1667.6486747999443,1667.665177899995,2.0167504000710323,1673.5202306999126,1673.520243100007,1673.5371347999899,1673.5371347999899,1675.0389009999344,"['2', '3', '3']","[0.8271886999718845, 1.1781228999607265]","[0.13520490005612373, 0.1598366000689566]",2,3,3,718,001,2024-10-16_17h42.38.335,Trial_mult,2023.2.1,60.36748100502717,2024-10-16 17h42.50.146237 -0400,
204,block6_trial4_attendright_leadmasker.wav,0,203,203,203,1675.0545701999217,,,,,,,,,1675.0546392999822,1675.071427399991,2.016804200015031,1680.9098468999146,1680.9098586000036,1680.9264526999323,1680.9264526999323,1681.8611715999432,"['2', '2', '3']","[0.3814629999687895, 0.6691483999602497]","[0.11217480001505464, 0.11216969997622073]",2,2,3,718,001,2024-10-16_17h42.38.335,Trial_mult,2023.2.1,60.36748100502717,2024-10-16 17h42.50.146237 -0400,
205,block6_trial5_attendleft_leadmasker.wav,0,204,204,204,1681.8767661999445,,,,,,,,,1681.8768386999145,1681.893301300006,2.017002400010824,1687.731730200001,1687.73174009996,1687.748444299912,1687.748444299912,1689.083706400008,"['3', '3', '1']","[0.5348608000203967, 0.9432769999839365]","[0.16887339996173978, 0.16819560003932565]",3,3,1,718,001,2024-10-16_17h42.38.335,Trial_mult,2023.2.1,60.36748100502717,2024-10-16 17h42.50.146237 -0400,
206,block6_trial6_attendleft_leadtarget.wav,0,205,205,205,1689.099176799995,,,,,,,,,1689.0992468999466,1689.115802199929,2.016574800014496,1694.9376737999264,1694.937684500008,1694.9543001999846,1694.9543001999846,1696.440193999908,"['2', '3', '2']","[0.5693975000176579, 1.1068363999947906]","[0.1513089999789372, 0.16584330005571246]",2,3,2,718,001,2024-10-16_17h42.38.335,Trial_mult,2023.2.1,60.36748100502717,2024-10-16 17h42.50.146237 -0400,
207,block6_trial7_attendright_leadmasker.wav,0,206,206,206,1696.4549806999275,,,,,,,,,1696.455047699972,1696.4717375999317,2.016207299893722,1702.309871800011,1702.3098828999791,1702.326445100014,1702.326445100014,1705.346685299999,"['3', '2', '2']","[1.1810908999759704, 1.8525209999643266]","[0.24038940004538745, 0.16870150004979223]",3,2,2,718,001,2024-10-16_17h42.38.335,Trial_mult,2023.2.1,60.36748100502717,2024-10-16 17h42.50.146237 -0400,
208,block6_trial8_attendleft_leadmasker.wav,0,207,207,207,1705.3621022999287,,,,,,,,,1705.3621602999046,1705.3787578999763,2.0173483000835404,1711.234185899957,1711.234196699923,1711.2506827999605,1711.2506827999605,1714.2535545999417,"['2', '2', '3']","[1.4644574000267312, 2.456839599995874]","[0.17615249997470528, 0.160624900017865]",2,2,3,718,001,2024-10-16_17h42.38.335,Trial_mult,2023.2.1,60.36748100502717,2024-10-16 17h42.50.146237 -0400,
209,block6_trial9_attendright_leadtarget.wav,0,208,208,208,1714.269289799966,,,,,,,,,1714.2693453999236,1714.2866663999157,2.0170693000545725,1720.1080740999896,1720.1080859999638,1720.1245541999815,1720.1245541999815,1721.3595939999213,"['2', '2', '2']","[0.4240735999774188, 0.8553227999946102]","[0.13437250000424683, 0.1273265000199899]",2,2,2,718,001,2024-10-16_17h42.38.335,Trial_mult,2023.2.1,60.36748100502717,2024-10-16 17h42.50.146237 -0400,
210,block6_trial10_attendright_leadtarget.wav,0,209,209,209,1721.3751390000107,,,,,,,,,1721.3752070999471,1721.3917711999966,2.0166402000468224,1727.2137415999314,1727.2137525000144,1727.230146399932,1727.230146399932,1728.3988300999627,"['2', '2', '2']","[0.33346270001493394, 0.7499409000156447]","[0.11984589998610318, 0.12778839992824942]",2,2,2,718,001,2024-10-16_17h42.38.335,Trial_mult,2023.2.1,60.36748100502717,2024-10-16 17h42.50.146237 -0400,
211,block6_trial11_attendright_leadmasker.wav,0,210,210,210,1728.413959199912,,,,,,,,,1728.4140092999442,1728.4305025999201,2.0163128999993205,1734.2693107000086,1734.2693254000042,1734.2859780999133,1734.2859780999133,1736.839005399961,"['1', '3', '1']","[1.0863396000349894, 1.821395399980247]","[0.19931779999751598, 0.20852650003507733]",1,3,1,718,001,2024-10-16_17h42.38.335,Trial_mult,2023.2.1,60.36748100502717,2024-10-16 17h42.50.146237 -0400,
212,block6_trial12_attendleft_leadmasker.wav,0,211,211,211,1736.8542177999625,,,,,,,,,1736.8542863999028,1736.8707786999876,2.0161767000099644,1742.725497599924,1742.7255079000024,1742.7421124000102,1742.7421124000102,1744.3277036999352,"['2', '2', '1']","[0.7902698999969289, 1.205125099979341]","[0.10324490000493824, 0.13742559996899217]",2,2,1,718,001,2024-10-16_17h42.38.335,Trial_mult,2023.2.1,60.36748100502717,2024-10-16 17h42.50.146237 -0400,
213,block6_trial13_attendleft_leadtarget.wav,0,212,212,212,1744.3432915000012,,,,,,,,,1744.343343699933,1744.3606715999776,2.0170134999789298,1750.1992356999544,1750.1992470999248,1750.2154326000018,1750.2154326000018,1751.1674326999346,"['1', '1', '1']","[0.17163620004430413, 0.5806648000143468]","[0.153208400006406, 0.1521663999883458]",1,1,1,718,001,2024-10-16_17h42.38.335,Trial_mult,2023.2.1,60.36748100502717,2024-10-16 17h42.50.146237 -0400,
214,block6_trial14_attendright_leadtarget.wav,0,213,213,213,1751.1822711999994,,,,,,,,,1751.1823256999487,1751.19891799998,2.015927700093016,1757.0208436999237,1757.0208538000006,1757.037294199923,1757.037294199923,1758.139036700013,"['1', '1', '3']","[0.4866618999512866, 0.7823913999600336]","[0.12732520001009107, 0.14495670003816485]",1,1,3,718,001,2024-10-16_17h42.38.335,Trial_mult,2023.2.1,60.36748100502717,2024-10-16 17h42.50.146237 -0400,
215,block6_trial15_attendleft_leadtarget.wav,0,214,214,214,1758.154635899933,,,,,,,,,1758.1547012999654,1758.1712076999247,2.0169089999981225,1763.9933233999182,1763.993335200008,1764.009987999918,1764.009987999918,1765.6283858999377,"['3', '2', '2']","[0.7693942999467254, 1.2330399999627843]","[0.15269380004610866, 0.13613720005378127]",3,2,2,718,001,2024-10-16_17h42.38.335,Trial_mult,2023.2.1,60.36748100502717,2024-10-16 17h42.50.146237 -0400,
216,block6_trial16_attendright_leadtarget.wav,0,215,215,215,1765.6437862999737,,,,,,,,,1765.6438409999246,1765.6606401000172,2.0166129000717774,1771.5158817999763,1771.5158921999391,1771.5322598000057,1771.5322598000057,1773.2845609999495,"['2', '1', '2']","[0.96695070003625, 1.3999111000448465]","[0.15189750003628433, 0.1273522999836132]",2,1,2,718,001,2024-10-16_17h42.38.335,Trial_mult,2023.2.1,60.36748100502717,2024-10-16 17h42.50.146237 -0400,
217,block6_trial17_attendright_leadmasker.wav,0,216,216,216,1773.300069799996,,,,,,,,,1773.3001395999454,1773.3167877999367,2.0166316999820992,1779.1719136999454,1779.1719236999052,1779.1884476999985,1779.1884476999985,1780.824480399955,"['3', '3', '2']","[0.9586360000539571, 1.3033547000959516]","[0.14410299994051456, 0.11965219990815967]",3,3,2,718,001,2024-10-16_17h42.38.335,Trial_mult,2023.2.1,60.36748100502717,2024-10-16 17h42.50.146237 -0400,
218,block6_trial18_attendleft_leadtarget.wav,0,217,217,217,1780.8394214999862,,,,,,,,,1780.8394755999325,1780.855993699981,2.0163265999872237,1786.6942709999857,1786.6942812999478,1786.710739000002,1786.710739000002,1789.3807720999466,"['1', '2', '3']","[1.7964898999780416, 2.2767978999763727]","[0.18388480006251484, 0.12984499998856336]",1,2,3,718,001,2024-10-16_17h42.38.335,Trial_mult,2023.2.1,60.36748100502717,2024-10-16 17h42.50.146237 -0400,
219,block6_trial19_attendleft_leadmasker.wav,0,218,218,218,1789.3963450000156,,,,,,,,,1789.3964089999208,1789.4128485999536,2.016780100064352,1795.2346902999561,1795.2347017999273,1795.2510552000022,1795.2510552000022,1797.9217364999931,"['3', '1', '3']","[0.9600664000026882, 1.5767016999889165]","[0.18450830003712326, 0.13563729997258633]",3,1,3,718,001,2024-10-16_17h42.38.335,Trial_mult,2023.2.1,60.36748100502717,2024-10-16 17h42.50.146237 -0400,
220,block6_trial20_attendleft_leadtarget.wav,0,219,219,219,1797.9368297000183,,,,,,,,,1797.936911399942,1797.9532142999815,2.0158254000125453,1803.7920838999562,1803.7920969999395,1803.8087454999331,1803.8087454999331,1805.3603444999317,"['2', '1', '3']","[0.7069744999753311, 1.1392318999860436]","[0.1442183000035584, 0.16710570000577718]",2,1,3,718,001,2024-10-16_17h42.38.335,Trial_mult,2023.2.1,60.36748100502717,2024-10-16 17h42.50.146237 -0400,
221,block6_trial21_attendleft_leadmasker.wav,0,220,220,220,1805.3757152999751,,,,,,,,,1805.3757681999123,1805.3926234999672,2.0166317999828607,1811.2142484999495,1811.2142638999503,1811.2304633000167,1811.2304633000167,1812.5494891999988,"['3', '1', '1']","[0.42070140002761036, 1.004553799983114]","[0.16872439999133348, 0.12900670000817627]",3,1,1,718,001,2024-10-16_17h42.38.335,Trial_mult,2023.2.1,60.36748100502717,2024-10-16 17h42.50.146237 -0400,
222,block6_trial22_attendleft_leadmasker.wav,0,221,221,221,1812.565170399961,,,,,,,,,1812.5652249999112,1812.5816375999711,2.016995499958284,1818.4202502999688,1818.4202611999353,1818.4369101999328,1818.4369101999328,1819.4384587999666,"['2', '1', '1']","[0.3506504000397399, 0.7107757000485435]","[0.1362269000383094, 0.12038780003786087]",2,1,1,718,001,2024-10-16_17h42.38.335,Trial_mult,2023.2.1,60.36748100502717,2024-10-16 17h42.50.146237 -0400,
