Index,audio,trials.thisRepN,trials.thisTrialN,trials.thisN,trials.thisIndex,thisRow.t,notes,Instruction.started,Instructions.started,resp_start.started,Instruction.stopped,resp_start.keys,trial.started,cross.started,audio.started,trial.stopped,Responses.started,respp.started,key_resp.started,Responses.stopped,key_resp.keys,key_resp.rt,key_resp.duration,response1,response2,response3,participant,session,date,expName,psychopyVersion,frameRate,expStart,
,,,,,,,,0.02193950000219047,0.05618109996430576,0.05618109996430576,2.2744986000470817,None,,,,,,,,,,,,,,,719,001,2024-10-31_12h47.46.785,Trial_mult,2023.2.1,60.00938539962185,2024-10-31 12h47.57.659379 -0400,
1,block1_trial1_attendright_leadmasker.wav,0,0,0,0,2.306519800098613,,,,,,,2.306584500009194,2.322846099967137,2.000484999967739,8.161831600125879,8.161842100089416,8.177758000092581,8.177758000092581,9.28009150014259,"['2', '3', '2']","[0.5783625999465585, 0.8506889999844134]","[0.0796465000603348, 0.09654389997012913]",2,3,2,719,001,2024-10-31_12h47.46.785,Trial_mult,2023.2.1,60.00938539962185,2024-10-31 12h47.57.659379 -0400,
2,block1_trial2_attendright_leadmasker.wav,0,1,1,1,11.297472800128162,,,,,,,11.297546500107273,11.314367100130767,2.0159712000750005,17.169374800054356,17.169385000132024,17.185136600164697,17.185136600164697,18.253677800064906,"['2', '3', '2']","[0.6590239000506699, 0.8509283000603318]","[0.12105099996551871, 0.11989480000920594]",2,3,2,719,001,2024-10-31_12h47.46.785,Trial_mult,2023.2.1,60.00938539962185,2024-10-31 12h47.57.659379 -0400,
3,block1_trial3_attendright_leadtarget.wav,0,2,2,2,20.27185870008543,,,,,,,20.27193560008891,20.288188100093976,2.017552100121975,26.12615260016173,26.12616300000809,26.142679000040516,26.142679000040516,27.27823229995556,"['1', '2', '2']","[0.6935396001208574, 0.9419658000115305]","[0.1127845998853445, 0.07291320012882352]",1,2,2,719,001,2024-10-31_12h47.46.785,Trial_mult,2023.2.1,60.00938539962185,2024-10-31 12h47.57.659379 -0400,
4,block1_trial4_attendright_leadmasker.wav,0,3,3,3,29.295298099983484,,,,,,,29.295364700024948,29.31241700006649,2.016640300163999,35.13340659998357,35.133416700176895,35.14998980006203,35.14998980006203,36.551641300087795,"['1', '2', '3']","[1.022358600050211, 1.2390968999825418]","[0.11170620005577803, 0.09683310007676482]",1,2,3,719,001,2024-10-31_12h47.46.785,Trial_mult,2023.2.1,60.00938539962185,2024-10-31 12h47.57.659379 -0400,
5,block1_trial5_attendright_leadmasker.wav,0,4,4,4,38.56966989999637,,,,,,,38.56974330008961,38.58637020015158,2.017873599892482,44.42425879999064,44.42426889995113,44.44092830014415,44.44092830014415,45.7762975001242,"['3', '2', '1']","[0.8830496000591666, 1.162783799925819]","[0.15206429990939796, 0.121110700070858]",3,2,1,719,001,2024-10-31_12h47.46.785,Trial_mult,2023.2.1,60.00938539962185,2024-10-31 12h47.57.659379 -0400,
6,block1_trial6_attendleft_leadtarget.wav,0,5,5,5,47.793988100020215,,,,,,,47.794064100133255,47.81036370014772,2.0173637999687344,53.665169400162995,53.66517940000631,53.681738700019196,53.681738700019196,54.917479700176045,"['3', '3', '1']","[0.8825161000713706, 1.0582455999683589]","[0.08849920006468892, 0.11259490018710494]",3,3,1,719,001,2024-10-31_12h47.46.785,Trial_mult,2023.2.1,60.00938539962185,2024-10-31 12h47.57.659379 -0400,
7,block1_trial7_attendleft_leadtarget.wav,0,6,6,6,56.93431850010529,,,,,,,56.93439540010877,56.95100100012496,2.0168888000771403,62.8058307999745,62.805840800050646,62.821730100084096,62.821730100084096,63.92354940017685,"['1', '2', '2']","[0.6383851000573486, 0.9120318000204861]","[0.09732989990152419, 0.07884049997664988]",1,2,2,719,001,2024-10-31_12h47.46.785,Trial_mult,2023.2.1,60.00938539962185,2024-10-31 12h47.57.659379 -0400,
8,block1_trial8_attendleft_leadmasker.wav,0,7,7,7,65.94122590008192,,,,,,,65.94129680003971,65.95821400010027,2.0172217001672834,71.77946860017255,71.77947850013152,71.79617480002344,71.79617480002344,72.78173319995403,"['2', '3', '3']","[0.5207685001660138, 0.7837980000767857]","[0.128285399870947, 0.08120150002650917]",2,3,3,719,001,2024-10-31_12h47.46.785,Trial_mult,2023.2.1,60.00938539962185,2024-10-31 12h47.57.659379 -0400,
9,block1_trial9_attendleft_leadmasker.wav,0,8,8,8,74.79832200007513,,,,,,,74.79838940012269,74.81518730008975,2.01723949983716,80.6533576999791,80.65336810005829,80.67009120015427,80.67009120015427,82.32168580009602,"['2', '3', '2']","[1.2317047000396997, 1.4536956001538783]","[0.12696960009634495, 0.0968017999548465]",2,3,2,719,001,2024-10-31_12h47.46.785,Trial_mult,2023.2.1,60.00938539962185,2024-10-31 12h47.57.659379 -0400,
10,block1_trial10_attendright_leadtarget.wav,0,9,9,9,84.33972860011272,,,,,,,84.33980620000511,84.35608030017465,2.0171990001108497,90.21083260001615,90.21084300009534,90.22798620001413,90.22798620001413,91.24550970015116,"['1', '2', '2']","[0.6005031000822783, 0.8327405001036823]","[0.10402949992567301, 0.07150419987738132]",1,2,2,719,001,2024-10-31_12h47.46.785,Trial_mult,2023.2.1,60.00938539962185,2024-10-31 12h47.57.659379 -0400,
11,block1_trial11_attendright_leadmasker.wav,0,10,10,10,93.2633432999719,,,,,,,93.26342019997537,93.2803243000526,2.018162599997595,99.13457500003278,99.13458580011502,99.1509583001025,99.1509583001025,100.2361706001684,"['1', '2', '2']","[0.58181960019283, 0.8852056001778692]","[0.10441819997504354, 0.09668829990550876]",1,2,2,719,001,2024-10-31_12h47.46.785,Trial_mult,2023.2.1,60.00938539962185,2024-10-31 12h47.57.659379 -0400,
12,block1_trial12_attendleft_leadtarget.wav,0,11,11,11,102.25395860010758,,,,,,,102.25403190008365,102.27071409998462,2.0178680000826716,108.09182750014588,108.09183709998615,108.1085475999862,108.1085475999862,109.24323550006375,"['1', '3', '2']","[0.6956890998408198, 0.9127321999985725]","[0.12795150000602007, 0.11074319994077086]",1,3,2,719,001,2024-10-31_12h47.46.785,Trial_mult,2023.2.1,60.00938539962185,2024-10-31 12h47.57.659379 -0400,
13,block1_trial13_attendright_leadmasker.wav,0,12,12,12,111.26124400016852,,,,,,,111.26131780003197,111.27766970009543,2.0186578000430018,117.09906399995089,117.09907390014268,117.11553810001351,117.11553810001351,118.03377140010707,"['3', '3', '3']","[0.5130606000311673, 0.7291192999109626]","[0.11221099994145334, 0.07979840016923845]",3,3,3,719,001,2024-10-31_12h47.46.785,Trial_mult,2023.2.1,60.00938539962185,2024-10-31 12h47.57.659379 -0400,
14,block1_trial14_attendright_leadtarget.wav,0,13,13,13,120.05175570002757,,,,,,,120.05183310015127,120.06845859996974,2.0165997000876814,125.92294159997255,125.92295200005174,125.93945930013433,125.93945930013433,126.79076690017246,"['2', '3', '3']","[0.4006107000168413, 0.6569482998456806]","[0.1370154998730868, 0.08987870020791888]",2,3,3,719,001,2024-10-31_12h47.46.785,Trial_mult,2023.2.1,60.00938539962185,2024-10-31 12h47.57.659379 -0400,
15,block1_trial15_attendleft_leadmasker.wav,0,14,14,14,128.80870210006833,,,,,,,128.80877600004897,128.82549940003082,2.017978699877858,134.6460967999883,134.64610680006444,134.6628372000996,134.6628372000996,135.76463820016943,"['3', '2', '1']","[0.6932719999458641, 0.9096929999068379]","[0.12204229994677007, 0.11257739993743598]",3,2,1,719,001,2024-10-31_12h47.46.785,Trial_mult,2023.2.1,60.00938539962185,2024-10-31 12h47.57.659379 -0400,
16,block1_trial16_attendleft_leadmasker.wav,0,15,15,15,137.7827364001423,,,,,,,137.78281340003014,137.7990533001721,2.017802500165999,143.62042040005326,143.62043050001375,143.63749790005386,143.63749790005386,144.72176089999266,"['2', '1', '1']","[0.6089258000720292, 0.9266931000165641]","[0.12631049985066056, 0.056521099992096424]",2,1,1,719,001,2024-10-31_12h47.46.785,Trial_mult,2023.2.1,60.00938539962185,2024-10-31 12h47.57.659379 -0400,
17,block1_trial17_attendleft_leadtarget.wav,0,16,16,16,146.73979270015843,,,,,,,146.73986810003407,146.75624920008704,2.0180667999666184,152.57759890006855,152.57760800002143,152.5937539001461,152.5937539001461,153.57892030011863,"['3', '2', '2']","[0.5394673000555485, 0.8263127999380231]","[0.1193485998082906, 0.07285260013304651]",3,2,2,719,001,2024-10-31_12h47.46.785,Trial_mult,2023.2.1,60.00938539962185,2024-10-31 12h47.57.659379 -0400,
18,block1_trial18_attendleft_leadtarget.wav,0,17,17,17,155.59724609996192,,,,,,,155.59732130006887,155.61386310006492,2.0174524998292327,161.45139400009066,161.45140420016833,161.46878750016913,161.46878750016913,162.7696811000351,"['2', '2', '1']","[0.8952107999939471, 1.0886464000213891]","[0.11248630005866289, 0.1265841000713408]",2,2,1,719,001,2024-10-31_12h47.46.785,Trial_mult,2023.2.1,60.00938539962185,2024-10-31 12h47.57.659379 -0400,
19,block1_trial19_attendright_leadtarget.wav,0,18,18,18,164.78748030005954,,,,,,,164.78755760006607,164.80460490006953,2.01733580022119,170.64209890016355,170.64210970001295,170.65871560014784,170.65871560014784,172.24422770016827,"['1', '2', '3']","[1.145904399920255, 1.3462814998347312, 1.4975230998825282]","[0.1515661000739783, 0.1592782000079751, 0.0801880001090467]",1,2,3,719,001,2024-10-31_12h47.46.785,Trial_mult,2023.2.1,60.00938539962185,2024-10-31 12h47.57.659379 -0400,
20,block1_trial20_attendright_leadtarget.wav,0,19,19,19,174.26166089996696,,,,,,,174.26173799997196,174.27839089999907,2.0180683000944555,180.11634830012918,180.11635809997097,180.13286849996075,180.13286849996075,181.08432280016132,"['2', '3', '1']","[0.6154984999448061, 0.7833582998719066]","[0.11222560005262494, 0.10441699996590614]",2,3,1,719,001,2024-10-31_12h47.46.785,Trial_mult,2023.2.1,60.00938539962185,2024-10-31 12h47.57.659379 -0400,
21,block1_trial21_attendright_leadtarget.wav,0,20,20,20,183.10214820015244,,,,,,,183.1022246000357,183.1189101000782,2.016388100106269,188.9403310001362,188.94034139998257,188.95734600001015,188.95734600001015,189.74139250000007,"['2', '2', '1']","[0.3985373000614345, 0.5588136001024395]","[0.08147160010412335, 0.10396369989030063]",2,2,1,719,001,2024-10-31_12h47.46.785,Trial_mult,2023.2.1,60.00938539962185,2024-10-31 12h47.57.659379 -0400,
22,block1_trial22_attendright_leadmasker.wav,0,21,21,21,191.75898730009794,,,,,,,191.75906149996445,191.77634480013512,2.0178317001555115,197.63072450016625,197.6307349000126,197.64727720012888,197.64727720012888,198.89851880003698,"['3', '2', '2']","[0.853245000122115, 1.0942804999649525]","[0.14467229996807873, 0.08001770009286702]",3,2,2,719,001,2024-10-31_12h47.46.785,Trial_mult,2023.2.1,60.00938539962185,2024-10-31 12h47.57.659379 -0400,
23,block1_trial23_attendright_leadmasker.wav,0,22,22,22,200.91664970014244,,,,,,,200.91672600014135,200.9334225000348,2.017308499896899,206.77094640000723,206.77095669996925,206.78740140004084,206.78740140004084,208.02264209999703,"['1', '1', '3']","[0.7451858001295477, 0.9777590001467615]","[0.12019589985720813, 0.15135749988257885]",1,1,3,719,001,2024-10-31_12h47.46.785,Trial_mult,2023.2.1,60.00938539962185,2024-10-31 12h47.57.659379 -0400,
24,block1_trial24_attendright_leadtarget.wav,0,23,23,23,210.04023439995944,,,,,,,210.04030270013027,210.05682369996794,2.017677699914202,215.87879720004275,215.8788077000063,215.8953843000345,215.8953843000345,217.31346760015003,"['2', '1', '1']","[0.8129382999613881, 1.252529599936679]","[0.12046199990436435, 0.08015569997951388]",2,1,1,719,001,2024-10-31_12h47.46.785,Trial_mult,2023.2.1,60.00938539962185,2024-10-31 12h47.57.659379 -0400,
25,block1_trial25_attendright_leadtarget.wav,0,24,24,24,219.33172970009036,,,,,,,219.33180709998123,219.34811420016922,2.018475800054148,225.16923930007033,225.16924880002625,225.18599000014365,225.18599000014365,226.87125710002147,"['1', '2', '1']","[1.2257817999925464, 1.465941899921745]","[0.12871739990077913, 0.11269870004616678]",1,2,1,719,001,2024-10-31_12h47.46.785,Trial_mult,2023.2.1,60.00938539962185,2024-10-31 12h47.57.659379 -0400,
26,block1_trial26_attendleft_leadmasker.wav,0,25,25,25,228.88874650001526,,,,,,,228.8888233001344,228.9055733999703,2.017968300031498,234.72721730009653,234.7272275001742,234.74301540013403,234.74301540013403,236.21180310007185,"['3', '2', '2']","[0.7186620999127626, 1.2130364999175072]","[0.17626380012370646, 0.08837020001374185]",3,2,2,719,001,2024-10-31_12h47.46.785,Trial_mult,2023.2.1,60.00938539962185,2024-10-31 12h47.57.659379 -0400,
27,block1_trial27_attendleft_leadmasker.wav,0,26,26,26,238.23011730005965,,,,,,,238.23019460006617,238.24669239996,2.018009399995208,244.06767689995468,244.0676880001556,244.08453710004687,244.08453710004687,245.35269329999574,"['2', '3', '2']","[0.6792198000475764, 0.9689474001061171]","[0.16082870005629957, 0.13467379985377192]",2,3,2,719,001,2024-10-31_12h47.46.785,Trial_mult,2023.2.1,60.00938539962185,2024-10-31 12h47.57.659379 -0400,
28,block1_trial28_attendleft_leadtarget.wav,0,27,27,27,247.37028170004487,,,,,,,247.3703551001381,247.38679320015945,2.0171158998273313,253.20847930014133,253.20848980010487,253.22471019998193,253.22471019998193,254.4765751999803,"['3', '2', '3']","[0.6355217997916043, 0.9639975999016315]","[0.16057070018723607, 0.12774910009466112]",3,2,3,719,001,2024-10-31_12h47.46.785,Trial_mult,2023.2.1,60.00938539962185,2024-10-31 12h47.57.659379 -0400,
29,block1_trial29_attendright_leadmasker.wav,0,28,28,28,256.49464450008236,,,,,,,256.4947117001284,256.5107817000244,2.0175397000275552,262.3661319001112,262.3661432999652,262.38294200017117,262.38294200017117,264.70141810015775,"['2', '1', '1']","[1.5413983999751508, 1.9737911999691278]","[0.10468440013937652, 0.095161700155586]",2,1,1,719,001,2024-10-31_12h47.46.785,Trial_mult,2023.2.1,60.00938539962185,2024-10-31 12h47.57.659379 -0400,
30,block1_trial30_attendright_leadtarget.wav,0,29,29,29,266.719950000057,,,,,,,266.72002750006504,266.73562200018205,2.0186022999696434,272.57378860004246,272.573799100006,272.5901989999693,272.5901989999693,274.3100525001064,"['1', '1', '2']","[1.3104811999946833, 1.4858363999519497]","[0.10447879997082055, 0.14486280013807118]",1,1,2,719,001,2024-10-31_12h47.46.785,Trial_mult,2023.2.1,60.00938539962185,2024-10-31 12h47.57.659379 -0400,
31,block1_trial31_attendleft_leadtarget.wav,0,30,30,30,276.3269196001347,,,,,,,276.3269980000332,276.34356900001876,2.017419699812308,282.1985979999881,282.19860880007036,282.214995900169,282.214995900169,283.36640990013257,"['1', '2', '3']","[0.8529514998663217, 1.013811499811709]","[0.11252950015477836, 0.11151030007749796]",1,2,3,719,001,2024-10-31_12h47.46.785,Trial_mult,2023.2.1,60.00938539962185,2024-10-31 12h47.57.659379 -0400,
32,block1_trial32_attendleft_leadtarget.wav,0,31,31,31,285.38445940008387,,,,,,,285.38453499996103,285.40068880002946,2.0175115999300033,291.238773399964,291.23878360004164,291.2553065000102,291.2553065000102,292.50708510004915,"['2', '1', '2']","[0.7813907000236213, 1.0221891000401229]","[0.10340589983388782, 0.11031789984554052]",2,1,2,719,001,2024-10-31_12h47.46.785,Trial_mult,2023.2.1,60.00938539962185,2024-10-31 12h47.57.659379 -0400,
33,block1_trial33_attendleft_leadmasker.wav,0,32,32,32,294.5249491999857,,,,,,,294.52502520009875,294.54167190007865,2.01796119986102,300.39645010000095,300.3964603000786,300.41304200002924,300.41304200002924,301.9813868000638,"['2', '1', '1']","[0.9039202001877129, 1.3602118999697268]","[0.12748739984817803, 0.08817780017852783]",2,1,1,719,001,2024-10-31_12h47.46.785,Trial_mult,2023.2.1,60.00938539962185,2024-10-31 12h47.57.659379 -0400,
34,block1_trial34_attendright_leadtarget.wav,0,33,33,33,303.99900329997763,,,,,,,303.9990771000739,304.015735700028,2.0173191998619586,309.87075000000186,309.87076009996235,309.8873344999738,309.8873344999738,311.2058776000049,"['2', '1', '1']","[0.8771561998873949, 1.1415738000068814]","[0.10427880007773638, 0.08849219977855682]",2,1,1,719,001,2024-10-31_12h47.46.785,Trial_mult,2023.2.1,60.00938539962185,2024-10-31 12h47.57.659379 -0400,
35,block1_trial35_attendright_leadmasker.wav,0,34,34,34,313.2229210000951,,,,,,,313.2229957000818,313.2397304000333,2.0168020999990404,319.06077570002526,319.0607853999827,319.077631900087,319.077631900087,320.66340190009214,"['3', '2', '1']","[1.1837357999756932, 1.3838892998173833]","[0.11219699983485043, 0.11159100010991096]",3,2,1,719,001,2024-10-31_12h47.46.785,Trial_mult,2023.2.1,60.00938539962185,2024-10-31 12h47.57.659379 -0400,
36,block1_trial36_attendleft_leadmasker.wav,0,35,35,35,322.6807685000822,,,,,,,322.68087010015734,322.69797340012155,2.0178597001358867,328.53544640005566,328.53545810002834,328.55281729996204,328.55281729996204,329.75406350009143,"['1', '2', '2']","[0.7711159999016672, 1.043165799928829]","[0.09756619995459914, 0.07357629993930459]",1,2,2,719,001,2024-10-31_12h47.46.785,Trial_mult,2023.2.1,60.00938539962185,2024-10-31 12h47.57.659379 -0400,
37,block1_trial37_attendleft_leadtarget.wav,0,36,36,36,331.77209700015374,,,,,,,331.7721744000446,331.78795250016265,2.0166223000269383,337.6431026000064,337.64311260008253,337.65938510000706,337.65938510000706,338.8942384000402,"['3', '2', '1']","[0.8817382000852376, 1.090153400087729]","[0.12788620009087026, 0.11901100003160536]",3,2,1,719,001,2024-10-31_12h47.46.785,Trial_mult,2023.2.1,60.00938539962185,2024-10-31 12h47.57.659379 -0400,
38,block1_trial38_attendleft_leadmasker.wav,0,37,37,37,340.91192900016904,,,,,,,340.91200190014206,340.92857050010934,2.0186528000049293,346.78353160014376,346.7835419999901,346.79950670013204,346.79950670013204,348.9030762000475,"['3', '1', '2']","[1.4849706999957561, 1.9268173000309616]","[0.13565240008756518, 0.10950010013766587]",3,1,2,719,001,2024-10-31_12h47.46.785,Trial_mult,2023.2.1,60.00938539962185,2024-10-31 12h47.57.659379 -0400,
39,block1_trial39_attendleft_leadtarget.wav,0,38,38,38,350.9200387999881,,,,,,,350.92011400009505,350.9373389000539,2.017010899959132,356.77463740017265,356.7746469001286,356.7918043001555,356.7918043001555,358.07729719998315,"['1', '1', '2']","[0.7892739998642355, 1.0143287999089807]","[0.1124853000510484, 0.11824909993447363]",1,1,2,719,001,2024-10-31_12h47.46.785,Trial_mult,2023.2.1,60.00938539962185,2024-10-31 12h47.57.659379 -0400,
40,block1_trial40_attendleft_leadmasker.wav,0,39,39,39,360.0946573000401,,,,,,,360.09473670017906,360.11068110005,2.0169325000606477,365.96494480012916,365.9649553000927,365.98190889996476,365.98190889996476,366.90061530005187,"['3', '3', '3']","[0.5190123999491334, 0.7341139998752624]","[0.12793780001811683, 0.081133299972862]",3,3,3,719,001,2024-10-31_12h47.46.785,Trial_mult,2023.2.1,60.00938539962185,2024-10-31 12h47.57.659379 -0400,
41,block2_trial1_attendleft_leadmasker.wav,0,40,40,40,368.91847679996863,,,,,,,394.90488230017945,394.9218028001487,2.018170499941334,400.74308539996855,400.7430964000523,400.7597092001233,400.7597092001233,401.4452806999907,"['1', '3', '1']","[0.38875210005789995, 0.5488082999363542]","[0.11130959982983768, 0.11185190011747181]",1,3,1,719,001,2024-10-31_12h47.46.785,Trial_mult,2023.2.1,60.00938539962185,2024-10-31 12h47.57.659379 -0400,
42,block2_trial2_attendleft_leadtarget.wav,0,41,41,41,403.4625558000989,,,,,,,403.46263230009936,403.47888780012727,2.0175961998756975,409.30025620013475,409.3002675001044,409.3170056999661,409.3170056999661,410.40182509995066,"['2', '2', '1']","[0.6641981999855489, 0.8471896999981254]","[0.07972589996643364, 0.09747499995864928]",2,2,1,719,001,2024-10-31_12h47.46.785,Trial_mult,2023.2.1,60.00938539962185,2024-10-31 12h47.57.659379 -0400,
43,block2_trial3_attendright_leadtarget.wav,0,42,42,42,412.4198779000435,,,,,,,412.4199553001672,412.436128300149,2.0181511999107897,418.2577680000104,418.25777820008807,418.27421410009265,418.27421410009265,419.30893429997377,"['3', '1', '1']","[0.4266574000939727, 0.8498282001819462]","[0.12776640010997653, 0.09759099991060793]",3,1,1,719,001,2024-10-31_12h47.46.785,Trial_mult,2023.2.1,60.00938539962185,2024-10-31 12h47.57.659379 -0400,
44,block2_trial4_attendright_leadtarget.wav,0,43,43,43,421.32643330004066,,,,,,,421.32650710013695,421.34322060015984,2.017029599985108,427.18081600009464,427.1808260001708,427.19804940000176,427.19804940000176,428.19992110016756,"['2', '3', '3']","[0.5831750000361353, 0.8546045999974012]","[0.08737149997614324, 0.08064970001578331]",2,3,3,719,001,2024-10-31_12h47.46.785,Trial_mult,2023.2.1,60.00938539962185,2024-10-31 12h47.57.659379 -0400,
45,block2_trial5_attendright_leadtarget.wav,0,44,44,44,430.217438200023,,,,,,,430.21751580014825,430.2341122000944,2.016320399940014,436.0888267001137,436.0888374999631,436.10568080004305,436.10568080004305,437.7077252001036,"['2', '2', '3']","[1.3079649000428617, 1.4347798000089824]","[0.05500070005655289, 0.08820659993216395]",2,2,3,719,001,2024-10-31_12h47.46.785,Trial_mult,2023.2.1,60.00938539962185,2024-10-31 12h47.57.659379 -0400,
46,block2_trial6_attendright_leadmasker.wav,0,45,45,45,439.7247371999547,,,,,,,439.7248112000525,439.74168810015544,2.0169955999590456,445.56297930004075,445.5629895001184,445.5795772001147,445.5795772001147,447.4653972000815,"['1', '2', '2']","[1.513293000170961, 1.729507700074464]","[0.10435919999144971, 0.07897930010221899]",1,2,2,719,001,2024-10-31_12h47.46.785,Trial_mult,2023.2.1,60.00938539962185,2024-10-31 12h47.57.659379 -0400,
47,block2_trial7_attendright_leadtarget.wav,0,46,46,46,449.4827048999723,,,,,,,449.48277959995903,449.4992720000446,2.015957999974489,455.32091700006276,455.3209273000248,455.3374455999583,455.3374455999583,456.1722455001436,"['1', '1', '2']","[0.4912311998195946, 0.6286653999704868]","[0.06471720011904836, 0.10212339996360242]",1,1,2,719,001,2024-10-31_12h47.46.785,Trial_mult,2023.2.1,60.00938539962185,2024-10-31 12h47.57.659379 -0400,
48,block2_trial8_attendright_leadmasker.wav,0,47,47,47,458.19021420017816,,,,,,,458.19028770015575,458.2066828000825,2.017024800181389,464.043618200114,464.0436281999573,464.06080860015936,464.06080860015936,464.8794762000907,"['3', '1', '3']","[0.48739839997142553, 0.6808456999715418]","[0.11258139996789396, 0.10290469997562468]",3,1,3,719,001,2024-10-31_12h47.46.785,Trial_mult,2023.2.1,60.00938539962185,2024-10-31 12h47.57.659379 -0400,
49,block2_trial9_attendright_leadtarget.wav,0,48,48,48,466.89675600011833,,,,,,,466.8968539000489,466.91313390014693,2.0159828001633286,472.7349197000731,472.73493070015684,472.75156100001186,472.75156100001186,473.67006590007804,"['3', '2', '2']","[0.4686706999782473, 0.7572638001292944]","[0.0960236000828445, 0.07187089999206364]",3,2,2,719,001,2024-10-31_12h47.46.785,Trial_mult,2023.2.1,60.00938539962185,2024-10-31 12h47.57.659379 -0400,
50,block2_trial10_attendleft_leadmasker.wav,0,49,49,49,475.68730820016935,,,,,,,475.6873896000907,475.70346720004454,2.0175109000410885,481.55858750012703,481.55859769997187,481.57545620016754,481.57545620016754,483.0436440000776,"['1', '2', '2']","[0.949427500134334, 1.3086280999705195]","[0.10336179984733462, 0.07207750016823411]",1,2,2,719,001,2024-10-31_12h47.46.785,Trial_mult,2023.2.1,60.00938539962185,2024-10-31 12h47.57.659379 -0400,
51,block2_trial11_attendleft_leadmasker.wav,0,50,50,50,485.06118419999257,,,,,,,485.06126109999605,485.07777880015783,2.0179776998702437,490.93264290015213,490.9326530001126,490.94863450014964,490.94863450014964,491.75097679998726,"['1', '2', '3']","[0.44933339999988675, 0.6397816999815404]","[0.09394859988242388, 0.09575539990328252]",1,2,3,719,001,2024-10-31_12h47.46.785,Trial_mult,2023.2.1,60.00938539962185,2024-10-31 12h47.57.659379 -0400,
52,block2_trial12_attendleft_leadmasker.wav,0,51,51,51,493.7680234001018,,,,,,,493.76809060014784,493.7846032001544,2.017596999881789,499.62296220008284,499.6229716001544,499.63974880008027,499.63974880008027,500.8245471001137,"['1', '2', '3']","[0.8057088998612016, 1.029888599878177]","[0.10312919993884861, 0.07919610012322664]",1,2,3,719,001,2024-10-31_12h47.46.785,Trial_mult,2023.2.1,60.00938539962185,2024-10-31 12h47.57.659379 -0400,
53,block2_trial13_attendright_leadmasker.wav,0,52,52,52,502.84249850013293,,,,,,,502.84257560013793,502.85899870004505,2.016681300010532,508.68026720010675,508.6802811000962,508.69646160001867,508.69646160001867,509.6485807001591,"['1', '2', '2']","[0.47619939991272986, 0.7641519999597222]","[0.12000049999915063, 0.07303850003518164]",1,2,2,719,001,2024-10-31_12h47.46.785,Trial_mult,2023.2.1,60.00938539962185,2024-10-31 12h47.57.659379 -0400,
54,block2_trial14_attendright_leadmasker.wav,0,53,53,53,511.6661688000895,,,,,,,511.6662433000747,511.68285600002855,2.016384999966249,517.5366165000014,517.5366269000806,517.5533833999652,517.5533833999652,518.4225345000159,"['1', '2', '2']","[0.36471060011535883, 0.71539600007236]","[0.0866150998044759, 0.07211779989302158]",1,2,2,719,001,2024-10-31_12h47.46.785,Trial_mult,2023.2.1,60.00938539962185,2024-10-31 12h47.57.659379 -0400,
55,block2_trial15_attendleft_leadmasker.wav,0,54,54,54,520.4395398001652,,,,,,,520.4396104000043,520.456105899997,2.016408000141382,526.2777036000043,526.2777138999663,526.2940871999599,526.2940871999599,527.5633213999681,"['3', '1', '2']","[0.9339967998676002, 1.1339364999439567]","[0.12044250010512769, 0.09730189992114902]",3,1,2,719,001,2024-10-31_12h47.46.785,Trial_mult,2023.2.1,60.00938539962185,2024-10-31 12h47.57.659379 -0400,
56,block2_trial16_attendleft_leadtarget.wav,0,55,55,55,529.5806863000616,,,,,,,529.5807608000468,529.5966086999979,2.0177390000317246,535.4183768001385,535.4183875001036,535.4343586000614,535.4343586000614,536.8206067001447,"['2', '2', '3']","[0.9787296999711543, 1.1469298999290913]","[0.11156830005347729, 0.08759590005502105]",2,2,3,719,001,2024-10-31_12h47.46.785,Trial_mult,2023.2.1,60.00938539962185,2024-10-31 12h47.57.659379 -0400,
57,block2_trial17_attendleft_leadmasker.wav,0,56,56,56,538.8382171001285,,,,,,,538.8382967000362,538.8541882000864,2.0170805000234395,544.7085456000641,544.7085558001418,544.725494600134,544.725494600134,545.5940543999895,"['2', '1', '3']","[0.575346700148657, 0.7350546000525355]","[0.11250279983505607, 0.10422290000133216]",2,1,3,719,001,2024-10-31_12h47.46.785,Trial_mult,2023.2.1,60.00938539962185,2024-10-31 12h47.57.659379 -0400,
58,block2_trial18_attendleft_leadtarget.wav,0,57,57,57,547.6117936000228,,,,,,,547.6118713000324,547.6280743000098,2.017918199999258,553.4827938999515,553.4828040001448,553.4991435001139,553.4991435001139,554.500916399993,"['1', '1', '2']","[0.6505414999555796, 0.8334576999768615]","[0.07818850013427436, 0.09530850010924041]",1,1,2,719,001,2024-10-31_12h47.46.785,Trial_mult,2023.2.1,60.00938539962185,2024-10-31 12h47.57.659379 -0400,
59,block2_trial19_attendleft_leadmasker.wav,0,58,58,58,556.5188380000181,,,,,,,556.5189114999957,556.5354375999887,2.0177984999027103,562.3563708001748,562.3563806000166,562.3726808000356,562.3726808000356,563.5251186001115,"['3', '2', '2']","[0.6333078001625836, 0.983334599994123]","[0.10265259980224073, 0.06432660017162561]",3,2,2,719,001,2024-10-31_12h47.46.785,Trial_mult,2023.2.1,60.00938539962185,2024-10-31 12h47.57.659379 -0400,
60,block2_trial20_attendright_leadmasker.wav,0,59,59,59,565.5422400999814,,,,,,,565.5423066001385,565.5588163000066,2.017041699960828,571.4140630001202,571.4140733999666,571.4308364000171,571.4308364000171,572.7825693001505,"['3', '3', '1']","[0.8857345001306385, 1.0696056000888348]","[0.08001799997873604, 0.14444349985569715]",3,3,1,719,001,2024-10-31_12h47.46.785,Trial_mult,2023.2.1,60.00938539962185,2024-10-31 12h47.57.659379 -0400,
61,block2_trial21_attendright_leadtarget.wav,0,60,60,60,574.7996726001147,,,,,,,574.7997663000133,574.8164896001108,2.017972700065002,580.6548669000622,580.6548775001429,580.6713489000686,580.6713489000686,581.8564208999742,"['1', '3', '3']","[0.7490811999887228, 1.0296405998524278]","[0.11247199983336031, 0.0728341001085937]",1,3,3,719,001,2024-10-31_12h47.46.785,Trial_mult,2023.2.1,60.00938539962185,2024-10-31 12h47.57.659379 -0400,
62,block2_trial22_attendleft_leadtarget.wav,0,61,61,61,583.8741385999601,,,,,,,583.8742120000534,583.8903465000913,2.017584200017154,589.7118059999775,589.7118160000537,589.7286998999771,589.7286998999771,590.6970288001467,"['3', '2', '1']","[0.6272015001159161, 0.8126847001258284]","[0.1058674999512732, 0.12814339995384216]",3,2,1,719,001,2024-10-31_12h47.46.785,Trial_mult,2023.2.1,60.00938539962185,2024-10-31 12h47.57.659379 -0400,
63,block2_trial23_attendleft_leadtarget.wav,0,62,62,62,592.7147019000258,,,,,,,592.7147781001404,592.7313210000284,2.017063699895516,598.5856962001417,598.5857067999896,598.6023377999663,598.6023377999663,599.754065599991,"['2', '2', '3']","[0.8103969998192042, 0.9861450998578221]","[0.08870090008713305, 0.1038786000572145]",2,2,3,719,001,2024-10-31_12h47.46.785,Trial_mult,2023.2.1,60.00938539962185,2024-10-31 12h47.57.659379 -0400,
64,block2_trial24_attendleft_leadtarget.wav,0,63,63,63,601.7715012000408,,,,,,,601.7715778001584,601.7880991999991,2.017944399965927,607.6427732000593,607.6427832001355,607.6594744999893,607.6594744999893,608.7117408001795,"['2', '3', '2']","[0.6483978999312967, 0.8502718000672758]","[0.11333269998431206, 0.12691550003364682]",2,3,2,719,001,2024-10-31_12h47.46.785,Trial_mult,2023.2.1,60.00938539962185,2024-10-31 12h47.57.659379 -0400,
65,block2_trial25_attendright_leadmasker.wav,0,64,64,64,610.7289966000244,,,,,,,610.7291566000786,610.7454433001112,2.017020900035277,616.6007201001048,616.6007302000653,616.6169062000699,616.6169062000699,618.0357139001135,"['2', '3', '3']","[0.971722099930048, 1.2349169000517577]","[0.12765919999219477, 0.08898340002633631]",2,3,3,719,001,2024-10-31_12h47.46.785,Trial_mult,2023.2.1,60.00938539962185,2024-10-31 12h47.57.659379 -0400,
66,block2_trial26_attendright_leadmasker.wav,0,65,65,65,620.0531260999851,,,,,,,620.0532131001819,620.0700680001173,2.01738079986535,625.8911179001443,625.8911294001155,625.9077049000189,625.9077049000189,627.3263903001789,"['3', '1', '2']","[1.0010305000469089, 1.1923718999605626]","[0.13584020012058318, 0.16926790005527437]",3,1,2,719,001,2024-10-31_12h47.46.785,Trial_mult,2023.2.1,60.00938539962185,2024-10-31 12h47.57.659379 -0400,
67,block2_trial27_attendright_leadtarget.wav,0,66,66,66,629.3438747001346,,,,,,,629.343952300027,629.3610078000929,2.017461100127548,635.2149498001672,635.2149605001323,635.2311641001143,635.2311641001143,636.550770800095,"['2', '2', '3']","[0.9251151999924332, 1.1091420999728143]","[0.09648540010675788, 0.12026340002194047]",2,2,3,719,001,2024-10-31_12h47.46.785,Trial_mult,2023.2.1,60.00938539962185,2024-10-31 12h47.57.659379 -0400,
68,block2_trial28_attendleft_leadmasker.wav,0,67,67,67,638.5677909001242,,,,,,,638.567867500009,638.5845701999497,2.017207199940458,644.4224684000947,644.4224783000536,644.4387101000175,644.4387101000175,646.0414263000712,"['2', '3', '3']","[1.0134915001690388, 1.414250300033018]","[0.1131866998039186, 0.07158410013653338]",2,3,3,719,001,2024-10-31_12h47.46.785,Trial_mult,2023.2.1,60.00938539962185,2024-10-31 12h47.57.659379 -0400,
69,block2_trial29_attendright_leadtarget.wav,0,68,68,68,648.0588295001071,,,,,,,648.0588971001562,648.0757911000401,2.016332299914211,653.9303852999583,653.9304015000816,653.9463760999497,653.9463760999497,654.8487837000284,"['2', '2', '3']","[0.5474505999591202, 0.6983143999241292]","[0.07885749987326562, 0.10389350005425513]",2,2,3,719,001,2024-10-31_12h47.46.785,Trial_mult,2023.2.1,60.00938539962185,2024-10-31 12h47.57.659379 -0400,
70,block2_trial30_attendleft_leadtarget.wav,0,69,69,69,656.8662565001287,,,,,,,656.8663312001154,656.8824459000025,2.0177674998994917,662.7201456001494,662.7201559999958,662.7367198001593,662.7367198001593,663.4884979999624,"['2', '3', '1']","[0.4122535998467356, 0.5884263999760151]","[0.11971480003558099, 0.10312199988402426]",2,3,1,719,001,2024-10-31_12h47.46.785,Trial_mult,2023.2.1,60.00938539962185,2024-10-31 12h47.57.659379 -0400,
71,block2_trial31_attendright_leadmasker.wav,0,70,70,70,665.5059927999973,,,,,,,665.5060690999962,665.5230543001089,2.0169454999268055,671.343754200032,671.3437662001234,671.3602700000629,671.3602700000629,672.5457868999802,"['2', '1', '1']","[0.7492613999638706, 1.0280175998341292]","[0.14317359984852374, 0.08039660006761551]",2,1,1,719,001,2024-10-31_12h47.46.785,Trial_mult,2023.2.1,60.00938539962185,2024-10-31 12h47.57.659379 -0400,
72,block2_trial32_attendleft_leadtarget.wav,0,71,71,71,674.5633735000156,,,,,,,674.5634409000631,674.5799140001182,2.0179063000250608,680.4009748999961,680.4009853999596,680.4179778001271,680.4179778001271,681.9537315999623,"['3', '2', '2']","[1.1310676001012325, 1.4022196000441909]","[0.12039649998769164, 0.06422509998083115]",3,2,2,719,001,2024-10-31_12h47.46.785,Trial_mult,2023.2.1,60.00938539962185,2024-10-31 12h47.57.659379 -0400,
73,block2_trial33_attendright_leadtarget.wav,0,72,72,72,683.9706043000333,,,,,,,683.9706761999987,683.9873848001007,2.016721799969673,689.8417760999873,689.8417865000665,689.858779600123,689.858779600123,691.1439923001453,"['3', '2', '1']","[0.8651503999717534, 1.082462899852544]","[0.14489550003781915, 0.1192741000559181]",3,2,1,719,001,2024-10-31_12h47.46.785,Trial_mult,2023.2.1,60.00938539962185,2024-10-31 12h47.57.659379 -0400,
74,block2_trial34_attendright_leadtarget.wav,0,73,73,73,693.161511400016,,,,,,,693.1615883000195,693.1783964000642,2.0180262001231313,699.032903400017,699.0329132000916,699.0498347000685,699.0498347000685,700.4186366000213,"['1', '2', '3']","[0.9944724999368191, 1.1964712999761105]","[0.12182270013727248, 0.09529660013504326]",1,2,3,719,001,2024-10-31_12h47.46.785,Trial_mult,2023.2.1,60.00938539962185,2024-10-31 12h47.57.659379 -0400,
75,block2_trial35_attendright_leadmasker.wav,0,74,74,74,702.4355922001414,,,,,,,702.435676400084,702.452309000073,2.0163841999601573,708.274078699993,708.2740891999565,708.2902777001727,708.2902777001727,709.8921678001061,"['3', '3', '1']","[1.0656628999859095, 1.250539799919352]","[0.09726209985092282, 0.12777790008112788]",3,3,1,719,001,2024-10-31_12h47.46.785,Trial_mult,2023.2.1,60.00938539962185,2024-10-31 12h47.57.659379 -0400,
76,block2_trial36_attendleft_leadtarget.wav,0,75,75,75,711.9096081999596,,,,,,,711.9096750000026,711.9269686001353,2.016693399986252,717.7483920000959,717.7484026001766,717.7645833001006,717.7645833001006,719.3167566000484,"['2', '3', '2']","[1.0324089000932872, 1.2404473999049515]","[0.10293569997884333, 0.09543640003539622]",2,3,2,719,001,2024-10-31_12h47.46.785,Trial_mult,2023.2.1,60.00938539962185,2024-10-31 12h47.57.659379 -0400,
77,block2_trial37_attendleft_leadmasker.wav,0,76,76,76,721.334291400155,,,,,,,721.3343691001646,721.3514354000799,2.017923600040376,727.172596000135,727.1726057000924,727.1886987001635,727.1886987001635,731.3252962001134,"['2', '2']","[1.8802076999563724, 2.201314899837598]","[0.09544899989850819, 0.12829920020885766]",2,2,NA,719,001,2024-10-31_12h47.46.785,Trial_mult,2023.2.1,60.00938539962185,2024-10-31 12h47.57.659379 -0400,
78,block2_trial38_attendleft_leadtarget.wav,0,77,77,77,733.3440692999866,,,,,,,733.3441431000829,737.1802775000688,2.0259461000096053,737.1967776999809,737.1967874001712,737.2130762999877,737.2130762999877,738.3824506001547,"['2', '1', '1']","[0.5916852001100779, 1.0164940999820828]","[0.12001499999314547, 0.07079360005445778]",2,1,1,719,001,2024-10-31_12h47.46.785,Trial_mult,2023.2.1,60.00938539962185,2024-10-31 12h47.57.659379 -0400,
79,block2_trial39_attendright_leadmasker.wav,0,78,78,78,740.3994855000637,,,,,,,740.3995592000429,740.4163116000127,2.017299799947068,746.2538732001558,746.2538833001163,746.2706926001702,746.2706926001702,747.2558830999769,"['3', '3', '3']","[0.6944687999784946, 0.8531766999512911]","[0.07164340000599623, 0.04857750004157424]",3,3,3,719,001,2024-10-31_12h47.46.785,Trial_mult,2023.2.1,60.00938539962185,2024-10-31 12h47.57.659379 -0400,
80,block2_trial40_attendleft_leadmasker.wav,0,79,79,79,749.2734058001079,,,,,,,749.2734797999728,749.2901071000379,2.016948099946603,755.1283583000768,755.1283686000388,755.1445186000783,755.1445186000783,756.7968876999803,"['2', '1', '1']","[1.1250481999013573, 1.5006924998015165]","[0.08736620005220175, 0.0626774001866579]",2,1,1,719,001,2024-10-31_12h47.46.785,Trial_mult,2023.2.1,60.00938539962185,2024-10-31 12h47.57.659379 -0400,
81,block3_trial1_attendright_leadmasker.wav,0,80,80,80,758.8143728000578,,,,,,,786.9369103000499,786.952954400098,2.0185615001246333,792.7917540001217,792.7917641000822,792.808125999989,792.808125999989,793.6101290001534,"['2', '3', '2']","[0.40460340003483, 0.6130723000969738]","[0.11957420012913644, 0.09484790009446442]",2,3,2,719,001,2024-10-31_12h47.46.785,Trial_mult,2023.2.1,60.00938539962185,2024-10-31 12h47.57.659379 -0400,
82,block3_trial2_attendright_leadmasker.wav,0,81,81,81,795.6269116001204,,,,,,,795.6269800001755,795.643714300124,2.0171568000223488,801.4814914001618,801.4815020000096,801.4985345001332,801.4985345001332,802.9844974000007,"['3', '3', '2']","[1.1301772000733763, 1.2901671000290662]","[0.07979559991508722, 0.10491649992763996]",3,3,2,719,001,2024-10-31_12h47.46.785,Trial_mult,2023.2.1,60.00938539962185,2024-10-31 12h47.57.659379 -0400,
83,block3_trial3_attendright_leadmasker.wav,0,82,82,82,805.0015581999905,,,,,,,805.0016358001158,805.0185420999769,2.0177350000012666,810.855951400008,810.8559606999625,810.87281420012,810.87281420012,812.0415066001005,"['2', '1', '3']","[0.7879188999067992, 0.9806590999942273]","[0.08791120001114905, 0.08785920008085668]",2,1,3,719,001,2024-10-31_12h47.46.785,Trial_mult,2023.2.1,60.00938539962185,2024-10-31 12h47.57.659379 -0400,
84,block3_trial4_attendright_leadmasker.wav,0,83,83,83,814.0585320000537,,,,,,,814.0586049000267,814.07542810007,2.017143700039014,819.9138331001159,819.9138432000764,819.9297593999654,819.9297593999654,821.4984703001101,"['2', '3', '2']","[1.2265075999312103, 1.3393242999445647, 1.4510733999777585]","[0.10493440018035471, 0.11974080000072718, 0.10312230000272393]",2,3,2,719,001,2024-10-31_12h47.46.785,Trial_mult,2023.2.1,60.00938539962185,2024-10-31 12h47.57.659379 -0400,
85,block3_trial5_attendright_leadmasker.wav,0,84,84,84,823.5163078999612,,,,,,,823.5163823000621,823.5330503000878,2.018244900042191,829.3877473999746,829.3877582000569,829.4042410000693,829.4042410000693,831.2732713001315,"['1', '2', '3']","[1.5516735999844968, 1.6416704999282956, 1.7599282998126]","[0.13690199982374907, 0.15897569991648197, 0.10545730008743703]",1,2,3,719,001,2024-10-31_12h47.46.785,Trial_mult,2023.2.1,60.00938539962185,2024-10-31 12h47.57.659379 -0400,
86,block3_trial6_attendright_leadtarget.wav,0,85,85,85,833.2908811001107,,,,,,,833.2909520999528,833.3076522999909,2.016881400020793,839.1287374000531,839.1287475000136,839.1452876001131,839.1452876001131,840.7641133000143,"['2', '2', '1']","[1.2763621001504362, 1.3953087001573294]","[0.03875409997999668, 0.08121389988809824]",2,2,1,719,001,2024-10-31_12h47.46.785,Trial_mult,2023.2.1,60.00938539962185,2024-10-31 12h47.57.659379 -0400,
87,block3_trial7_attendleft_leadmasker.wav,0,86,86,86,842.7822165000252,,,,,,,842.7822932000272,842.7986409000587,2.01819509989582,848.6528881001286,848.6528982000891,848.6693441001698,848.6693441001698,850.5218243000563,"['2', '3', '1']","[0.9351379999425262, 1.1993619999848306]","[0.1132978000678122, 0.12799010006710887]",2,3,1,719,001,2024-10-31_12h47.46.785,Trial_mult,2023.2.1,60.00938539962185,2024-10-31 12h47.57.659379 -0400,
88,block3_trial8_attendright_leadmasker.wav,0,87,87,87,852.5392907001078,,,,,,,852.5393579001538,852.556210400071,2.017550199991092,858.4115186999552,858.41152900015,858.4275836001616,858.4275836001616,859.5129684000276,"['2', '1', '1']","[0.6004592999815941, 0.9461254000198096]","[0.12810899992473423, 0.07042349991388619]",2,1,1,719,001,2024-10-31_12h47.46.785,Trial_mult,2023.2.1,60.00938539962185,2024-10-31 12h47.57.659379 -0400,
89,block3_trial9_attendright_leadtarget.wav,0,88,88,88,861.5305206000339,,,,,,,861.5305989000481,861.5468862999696,2.0171876000240445,867.3680661001708,867.3680758001283,867.3841275000013,867.3841275000013,869.604468600126,"['1', '1', '2']","[1.8442277000285685, 2.0121182000730187]","[0.07335030008107424, 0.10418729996308684]",1,1,2,719,001,2024-10-31_12h47.46.785,Trial_mult,2023.2.1,60.00938539962185,2024-10-31 12h47.57.659379 -0400,
90,block3_trial10_attendleft_leadtarget.wav,0,89,89,89,871.6217219000682,,,,,,,871.6217893001158,871.6387657001615,2.0174639001488686,877.4928479001392,877.4928584001027,877.5098170000128,877.5098170000128,881.6128420000896,"['1', '3']","[1.5753852999769151, 2.6148667000234127]","[0.07099799998104572, 0.09684720006771386]",1,3,NA,719,001,2024-10-31_12h47.46.785,Trial_mult,2023.2.1,60.00938539962185,2024-10-31 12h47.57.659379 -0400,
91,block3_trial11_attendright_leadtarget.wav,0,90,90,90,883.6317184001673,,,,,,,883.6317963001784,887.4677657999564,2.0256429000291973,887.4844496001024,887.4844603000674,887.5013423000928,887.5013423000928,888.635828900151,"['2', '3', '1']","[0.7596964999102056, 0.9517661998979747]","[0.14395310007967055, 0.1114847999997437]",2,3,1,719,001,2024-10-31_12h47.46.785,Trial_mult,2023.2.1,60.00938539962185,2024-10-31 12h47.57.659379 -0400,
92,block3_trial12_attendleft_leadmasker.wav,0,91,91,91,890.6539360000752,,,,,,,890.6540117999539,890.6706745000556,2.0186381000094116,896.4914989999961,896.4915086000692,896.5082573001273,896.5082573001273,898.1936944001354,"['2', '2', '3']","[1.3356417000759393, 1.5120448998641223]","[0.1050820997916162, 0.11301690014079213]",2,2,3,719,001,2024-10-31_12h47.46.785,Trial_mult,2023.2.1,60.00938539962185,2024-10-31 12h47.57.659379 -0400,
93,block3_trial13_attendleft_leadtarget.wav,0,92,92,92,900.2117123999633,,,,,,,900.2117904999759,900.2278301999904,2.0181272998452187,906.0485251999926,906.0485352000687,906.0650147001725,906.0650147001725,907.8679758999497,"['1', '1', '2']","[1.4835356001276523, 1.6432191000785679]","[0.07973790005780756, 0.10471770004369318]",1,1,2,719,001,2024-10-31_12h47.46.785,Trial_mult,2023.2.1,60.00938539962185,2024-10-31 12h47.57.659379 -0400,
94,block3_trial14_attendleft_leadtarget.wav,0,93,93,93,909.8853107001632,,,,,,,909.8853689001407,909.9019236001186,2.0179270000662655,915.7568999000359,915.7569099001121,915.7732035000809,915.7732035000809,917.8598868001718,"['3', '1', '3']","[1.6638062000274658, 1.847966399975121, 1.968238899949938]","[0.13606410007923841, 0.12715240009129047, 0.10299200005829334]",3,1,3,719,001,2024-10-31_12h47.46.785,Trial_mult,2023.2.1,60.00938539962185,2024-10-31 12h47.57.659379 -0400,
95,block3_trial15_attendleft_leadtarget.wav,0,94,94,94,919.8771895000245,,,,,,,919.8772668000311,919.8935690999497,2.016950699966401,925.7489249000791,925.7489369001705,925.7651732000522,925.7651732000522,927.450513600139,"['3', '2', '1']","[1.3995262999087572, 1.535373899852857]","[0.1279281999450177, 0.12059259996749461]",3,2,1,719,001,2024-10-31_12h47.46.785,Trial_mult,2023.2.1,60.00938539962185,2024-10-31 12h47.57.659379 -0400,
96,block3_trial16_attendright_leadtarget.wav,0,95,95,95,929.4683809999842,,,,,,,929.468454600079,929.4848405001685,2.017358500044793,935.3055180001538,935.3055275999941,935.3222623001784,935.3222623001784,937.1916732001118,"['1', '3', '1']","[1.570012800162658, 1.715127700008452]","[0.12840369995683432, 0.12694730004295707]",1,3,1,719,001,2024-10-31_12h47.46.785,Trial_mult,2023.2.1,60.00938539962185,2024-10-31 12h47.57.659379 -0400,
97,block3_trial17_attendleft_leadtarget.wav,0,96,96,96,939.2095033000223,,,,,,,939.2095868999604,939.2260901001282,2.0178624000400305,945.0639862001408,945.0639967999887,945.0804100001696,945.0804100001696,947.3163920999505,"['2', '1', '2']","[1.8121307000983506, 2.052919200155884]","[0.14335040003061295, 0.12712999992072582]",2,1,2,719,001,2024-10-31_12h47.46.785,Trial_mult,2023.2.1,60.00938539962185,2024-10-31 12h47.57.659379 -0400,
98,block3_trial18_attendleft_leadmasker.wav,0,97,97,97,949.3339605999645,,,,,,,949.3340364999603,949.3510732001159,2.01768930000253,955.1886820001528,955.1886923999991,955.2054322001059,955.2054322001059,958.642614700133,"['2', '1', '1']","[3.128161800093949, 3.3272879000287503]","[0.08704369980841875, 0.05570230004377663]",2,1,1,719,001,2024-10-31_12h47.46.785,Trial_mult,2023.2.1,60.00938539962185,2024-10-31 12h47.57.659379 -0400,
99,block3_trial19_attendright_leadmasker.wav,0,98,98,98,960.6595243001357,,,,,,,960.6596019000281,960.6763252001256,2.0168361999094486,966.5140505000018,966.5140611999668,966.5303789000027,966.5303789000027,967.8833559001796,"['3', '2', '3']","[1.0026483000256121, 1.2032290999777615]","[0.11173669993877411, 0.07963749999180436]",3,2,3,719,001,2024-10-31_12h47.46.785,Trial_mult,2023.2.1,60.00938539962185,2024-10-31 12h47.57.659379 -0400,
100,block3_trial20_attendright_leadmasker.wav,0,99,99,99,969.9003821001388,,,,,,,969.9004629000556,969.9173829001375,2.0179572000633925,975.7551067001186,975.7551190000959,975.7713979000691,975.7713979000691,977.1239359001629,"['1', '2', '3']","[1.0575518000405282, 1.2329132000450045]","[0.09576599998399615, 0.08884490001946688]",1,2,3,719,001,2024-10-31_12h47.46.785,Trial_mult,2023.2.1,60.00938539962185,2024-10-31 12h47.57.659379 -0400,
101,block3_trial21_attendright_leadtarget.wav,0,100,100,100,979.1413944000378,,,,,,,979.1414753999561,979.1577161999885,2.016954799881205,984.9954200000502,984.9954307000153,985.0122659001499,985.0122659001499,986.1810511001386,"['2', '2', '1']","[0.8083305000327528, 0.9360243000555784]","[0.040023500099778175, 0.07205289998091757]",2,2,1,719,001,2024-10-31_12h47.46.785,Trial_mult,2023.2.1,60.00938539962185,2024-10-31 12h47.57.659379 -0400,
102,block3_trial22_attendright_leadmasker.wav,0,101,101,101,988.1981697001029,,,,,,,988.1982382000424,988.2148782000877,2.0181448999792337,994.0527964001521,994.0528069001157,994.0694907000288,994.0694907000288,996.7900203000754,"['2', '3', '1']","[2.3675840999931097, 2.54245449998416]","[0.06322230002842844, 0.12158839986659586]",2,3,1,719,001,2024-10-31_12h47.46.785,Trial_mult,2023.2.1,60.00938539962185,2024-10-31 12h47.57.659379 -0400,
103,block3_trial23_attendright_leadtarget.wav,0,102,102,102,998.8069909000769,,,,,,,998.8070607001428,998.8235381999984,2.0162484999746084,1004.6450826001819,1004.6450934000313,1004.6617414001375,1004.6617414001375,1005.680287900148,"['3', '1', '1']","[0.623032399918884, 0.8957710999529809]","[0.10370959993451834, 0.06320099998265505]",3,1,1,719,001,2024-10-31_12h47.46.785,Trial_mult,2023.2.1,60.00938539962185,2024-10-31 12h47.57.659379 -0400,
104,block3_trial24_attendleft_leadmasker.wav,0,103,103,103,1007.697722400073,,,,,,,1007.6977995999623,1007.714220700087,2.0160844998899847,1013.5686972001567,1013.568706799997,1013.584836400114,1013.584836400114,1014.7710251000244,"['1', '3', '1']","[0.8434210000559688, 1.0364093999378383]","[0.13591740000993013, 0.112629400100559]",1,3,1,719,001,2024-10-31_12h47.46.785,Trial_mult,2023.2.1,60.00938539962185,2024-10-31 12h47.57.659379 -0400,
105,block3_trial25_attendright_leadmasker.wav,0,104,104,104,1016.7885994000826,,,,,,,1016.7886737000663,1016.8050196999684,2.0167737998999655,1022.6594843000639,1022.6594944000244,1022.6756911999546,1022.6756911999546,1024.3613184001297,"['3', '1', '1']","[1.2101214998401701, 1.5123865997884423]","[0.10289259999990463, 0.08055690000765026]",3,1,1,719,001,2024-10-31_12h47.46.785,Trial_mult,2023.2.1,60.00938539962185,2024-10-31 12h47.57.659379 -0400,
106,block3_trial26_attendright_leadtarget.wav,0,105,105,105,1026.3788052001037,,,,,,,1026.378881599987,1026.3958714001346,2.0173486000858247,1032.2340299000498,1032.2340406000149,1032.2502972001676,1032.2502972001676,1035.170803999994,"['1', '3', '1']","[2.522148999851197, 2.7857870999723673]","[0.09643070003949106, 0.10383019992150366]",1,3,1,719,001,2024-10-31_12h47.46.785,Trial_mult,2023.2.1,60.00938539962185,2024-10-31 12h47.57.659379 -0400,
107,block3_trial27_attendleft_leadtarget.wav,0,106,106,106,1037.1879505000543,,,,,,,1037.1880185001064,1037.2048386000097,2.0159104000777006,1043.0424866001122,1043.0424973000772,1043.0586916999891,1043.0586916999891,1045.1446726000868,"['1', '3', '1']","[1.345782000105828, 1.746337000047788]","[0.07162799988873303, 0.15973529987968504]",1,3,1,719,001,2024-10-31_12h47.46.785,Trial_mult,2023.2.1,60.00938539962185,2024-10-31 12h47.57.659379 -0400,
108,block3_trial28_attendleft_leadmasker.wav,0,107,107,107,1047.1627730000764,,,,,,,1047.1628481999505,1047.1794789000414,2.017687699990347,1053.0339880001266,1053.0339987000916,1053.0512348001357,1053.0512348001357,1055.136216300074,"['3', '2', '1']","[1.7060680999420583, 1.9046209000516683]","[0.10440440010279417, 0.09612649981863797]",3,2,1,719,001,2024-10-31_12h47.46.785,Trial_mult,2023.2.1,60.00938539962185,2024-10-31 12h47.57.659379 -0400,
109,block3_trial29_attendleft_leadtarget.wav,0,108,108,108,1057.1535370000638,,,,,,,1057.153602699982,1057.1704713001382,2.017374699935317,1063.025403100066,1063.0254133001436,1063.0421574001666,1063.0421574001666,1064.2609451999888,"['2', '3', '1']","[0.882381800096482, 1.0664288001134992]","[0.11380509985610843, 0.09665569989010692]",2,3,1,719,001,2024-10-31_12h47.46.785,Trial_mult,2023.2.1,60.00938539962185,2024-10-31 12h47.57.659379 -0400,
110,block3_trial30_attendright_leadtarget.wav,0,109,109,109,1066.2781573999673,,,,,,,1066.278235200094,1066.2947209000122,2.017128200037405,1072.1153190999757,1072.1153290001675,1072.1319309000392,1072.1319309000392,1073.1009780000895,"['2', '3', '1']","[0.6414418001659214, 0.8160594999790192]","[0.11937749991193414, 0.1281934001017362]",2,3,1,719,001,2024-10-31_12h47.46.785,Trial_mult,2023.2.1,60.00938539962185,2024-10-31 12h47.57.659379 -0400,
111,block3_trial31_attendleft_leadmasker.wav,0,110,110,110,1075.1183283000719,,,,,,,1075.1184056000784,1075.134847600013,2.017148699844256,1080.990228800103,1080.990239399951,1081.0061682001688,1081.0061682001688,1082.9088524000254,"['2', '3', '2']","[1.5675739001017064, 1.7125512999482453]","[0.14379030000418425, 0.16570670017972589]",2,3,2,719,001,2024-10-31_12h47.46.785,Trial_mult,2023.2.1,60.00938539962185,2024-10-31 12h47.57.659379 -0400,
112,block3_trial32_attendleft_leadtarget.wav,0,111,111,111,1084.9258288999554,,,,,,,1084.9258900999557,1084.942539300071,2.016002499964088,1090.7969443001784,1090.7969542001374,1090.8133335001767,1090.8133335001767,1092.1156816000585,"['2', '3', '1']","[0.9827638000715524, 1.1195177999325097]","[0.1281749999616295, 0.09566069999709725]",2,3,1,719,001,2024-10-31_12h47.46.785,Trial_mult,2023.2.1,60.00938539962185,2024-10-31 12h47.57.659379 -0400,
113,block3_trial33_attendleft_leadtarget.wav,0,112,112,112,1094.1335842001718,,,,,,,1094.1336626000702,1094.1503638001159,2.0179714001715183,1099.9883855001535,1099.9883977000136,1100.0049571001437,1100.0049571001437,1103.1413567999844,"['2', '2', '3']","[2.8808977999724448, 3.0322465000208467]","[0.07841369998641312, 0.06309240008704364]",2,2,3,719,001,2024-10-31_12h47.46.785,Trial_mult,2023.2.1,60.00938539962185,2024-10-31 12h47.57.659379 -0400,
114,block3_trial34_attendright_leadtarget.wav,0,113,113,113,1105.1587011001538,,,,,,,1105.1587637001649,1105.1758316999767,2.0179691000375897,1111.0300133000128,1111.0300233999733,1111.0466301999986,1111.0466301999986,1112.9328022000846,"['3', '3', '1']","[1.5906269999686629, 1.7116298999171704]","[0.0386844000313431, 0.09573900001123548]",3,3,1,719,001,2024-10-31_12h47.46.785,Trial_mult,2023.2.1,60.00938539962185,2024-10-31 12h47.57.659379 -0400,
115,block3_trial35_attendleft_leadmasker.wav,0,114,114,114,1114.9507774000522,,,,,,,1114.9508530001622,1114.9667104999535,2.0165146000217646,1120.7888778999913,1120.788888500072,1120.8048374000937,1120.8048374000937,1122.1902950999793,"['2', '2', '3']","[1.0476856001187116, 1.1836113999597728]","[0.05612559989094734, 0.09640680020675063]",2,2,3,719,001,2024-10-31_12h47.46.785,Trial_mult,2023.2.1,60.00938539962185,2024-10-31 12h47.57.659379 -0400,
116,block3_trial36_attendleft_leadmasker.wav,0,115,115,115,1124.207570400089,,,,,,,1124.2076441999525,1124.2247828999534,2.0178582000080496,1130.0789304000791,1130.0789408001583,1130.0959867001511,1130.0959867001511,1131.7477802999783,"['1', '3', '3']","[1.3002579000312835, 1.5164349998813123]","[0.09734710003249347, 0.04898159997537732]",1,3,3,719,001,2024-10-31_12h47.46.785,Trial_mult,2023.2.1,60.00938539962185,2024-10-31 12h47.57.659379 -0400,
117,block3_trial37_attendright_leadtarget.wav,0,116,116,116,1133.7652133000083,,,,,,,1133.7652871001046,1133.7818387001753,2.0173193998634815,1139.636580800172,1139.6365912000183,1139.6529584000818,1139.6529584000818,1141.673047499964,"['2', '3', '3']","[1.4395775999873877, 1.8481066001113504]","[0.09632180002517998, 0.05503369984216988]",2,3,3,719,001,2024-10-31_12h47.46.785,Trial_mult,2023.2.1,60.00938539962185,2024-10-31 12h47.57.659379 -0400,
118,block3_trial38_attendleft_leadtarget.wav,0,117,117,117,1143.6903345000464,,,,,,,1143.690410300158,1143.7067597999703,2.0168204000219703,1149.5282825999893,1149.5282930999529,1149.5444364000577,1149.5444364000577,1151.1630909000523,"['1', '3', '2']","[1.1806209001224488, 1.4039126001298428]","[0.13580889999866486, 0.1439526998437941]",1,3,2,719,001,2024-10-31_12h47.46.785,Trial_mult,2023.2.1,60.00938539962185,2024-10-31 12h47.57.659379 -0400,
119,block3_trial39_attendleft_leadmasker.wav,0,118,118,118,1153.1807792000473,,,,,,,1153.1808509000111,1153.1974200000986,2.0178604000248015,1159.0518632000312,1159.0518732001074,1159.0683270001318,1159.0683270001318,1160.6542537000496,"['1', '2', '3']","[1.1530146999284625, 1.3778695000801235]","[0.12750139995478094, 0.13384019979275763]",1,2,3,719,001,2024-10-31_12h47.46.785,Trial_mult,2023.2.1,60.00938539962185,2024-10-31 12h47.57.659379 -0400,
120,block3_trial40_attendleft_leadmasker.wav,0,119,119,119,1162.6715721001383,,,,,,,1162.671639499953,1162.6884037000127,2.01696619996801,1168.5265550001059,1168.5265655000694,1168.5434100001585,1168.5434100001585,1169.6453073001467,"['1', '2', '2']","[0.6765340000856668, 0.9741408000700176]","[0.10520930006168783, 0.05516460002399981]",1,2,2,719,001,2024-10-31_12h47.46.785,Trial_mult,2023.2.1,60.00938539962185,2024-10-31 12h47.57.659379 -0400,
121,block4_trial1_attendright_leadmasker.wav,0,120,120,120,1171.6621795000974,,,,,,,1209.0587580001447,1209.0755127000157,2.018193299882114,1214.9134178999811,1214.9134295000695,1214.9299278999679,1214.9299278999679,1217.1665966000874,"['1', '1', '1']","[0.3714091000147164, 2.058265500003472]","[0.08669960009865463, 0.07970510004088283]",1,1,1,719,001,2024-10-31_12h47.46.785,Trial_mult,2023.2.1,60.00938539962185,2024-10-31 12h47.57.659379 -0400,
122,block4_trial2_attendleft_leadmasker.wav,0,121,121,121,1219.1842241999693,,,,,,,1219.1843008999713,1219.2004484999925,2.0178058999590576,1225.0381293999963,1225.0381398999598,1225.0551253999583,1225.0551253999583,1225.806904700119,"['1', '3', '2']","[0.414299099938944, 0.5671659000217915]","[0.13567820005118847, 0.13364249980077147]",1,3,2,719,001,2024-10-31_12h47.46.785,Trial_mult,2023.2.1,60.00938539962185,2024-10-31 12h47.57.659379 -0400,
123,block4_trial3_attendright_leadtarget.wav,0,122,122,122,1227.8245437000878,,,,,,,1227.8246206000913,1227.840949299978,2.017251299927011,1233.678694000002,1233.6787044999655,1233.695089600049,1233.695089600049,1235.1476184001658,"['1', '3', '1']","[0.669550099875778, 1.1657102999743074]","[0.20015930011868477, 0.12040969985537231]",1,3,1,719,001,2024-10-31_12h47.46.785,Trial_mult,2023.2.1,60.00938539962185,2024-10-31 12h47.57.659379 -0400,
124,block4_trial4_attendright_leadmasker.wav,0,123,123,123,1237.1655101000797,,,,,,,1237.1655878000893,1237.1818587000016,2.0171366001013666,1243.0196762001142,1243.0196869999636,1243.0363003001548,1243.0363003001548,1244.7388375001028,"['1', '3', '2']","[1.3288567999843508, 1.4492393999826163, 1.5764693999662995]","[0.15084450016729534, 0.1508967000991106, 0.11205770005472004]",1,3,2,719,001,2024-10-31_12h47.46.785,Trial_mult,2023.2.1,60.00938539962185,2024-10-31 12h47.57.659379 -0400,
125,block4_trial5_attendright_leadmasker.wav,0,124,124,124,1246.7561628001276,,,,,,,1246.756239300128,1246.7728313000407,2.017098299926147,1252.627421400044,1252.6274308001157,1252.6441768000368,1252.6441768000368,1253.7792047001421,"['2', '3', '2']","[0.36017820006236434, 0.8724108999595046]","[0.11176969995722175, 0.11963000008836389]",2,3,2,719,001,2024-10-31_12h47.46.785,Trial_mult,2023.2.1,60.00938539962185,2024-10-31 12h47.57.659379 -0400,
126,block4_trial6_attendleft_leadmasker.wav,0,125,125,125,1255.796971600037,,,,,,,1255.7970501000527,1255.8136967001483,2.0183494999073446,1261.6345538001042,1261.6345639000647,1261.6510453000665,1261.6510453000665,1262.6027393999975,"['2', '1', '3']","[0.6022785000968724, 0.7851315001025796]","[0.15313009987585247, 0.13615079992450774]",2,1,3,719,001,2024-10-31_12h47.46.785,Trial_mult,2023.2.1,60.00938539962185,2024-10-31 12h47.57.659379 -0400,
127,block4_trial7_attendleft_leadtarget.wav,0,126,126,126,1264.6202191000339,,,,,,,1264.6202962000389,1264.6371196000837,2.018000700045377,1270.4585174999665,1270.4585285000503,1270.474872800056,1270.474872800056,1271.3935108999722,"['3', '2', '2']","[0.43374440004117787, 0.7376621998846531]","[0.1452930998057127, 0.0713520001154393]",3,2,2,719,001,2024-10-31_12h47.46.785,Trial_mult,2023.2.1,60.00938539962185,2024-10-31 12h47.57.659379 -0400,
128,block4_trial8_attendright_leadtarget.wav,0,127,127,127,1273.4111172000412,,,,,,,1273.411193100037,1273.4275426000822,2.0180453998036683,1279.281997299986,1279.2820078001823,1279.298630699981,1279.298630699981,1280.0342727000825,"['2', '2', '3']","[0.33752700011245906, 0.5213232999667525]","[0.0885778998490423, 0.12141430005431175]",2,2,3,719,001,2024-10-31_12h47.46.785,Trial_mult,2023.2.1,60.00938539962185,2024-10-31 12h47.57.659379 -0400,
129,block4_trial9_attendright_leadmasker.wav,0,128,128,128,1282.0514535000548,,,,,,,1282.0515301001724,1282.0675794000272,2.015117100207135,1287.9229888999835,1287.9229993000627,1287.9390539999586,1287.9390539999586,1289.3243704000488,"['2', '1', '1']","[0.6901779999025166, 1.1941924998536706]","[0.15881279995664954, 0.09566000010818243]",2,1,1,719,001,2024-10-31_12h47.46.785,Trial_mult,2023.2.1,60.00938539962185,2024-10-31 12h47.57.659379 -0400,
130,block4_trial10_attendright_leadtarget.wav,0,129,129,129,1291.3416534001008,,,,,,,1291.3417210001498,1291.3585606000852,2.0175694001372904,1297.213224499952,1297.2132344001438,1297.2301034000702,1297.2301034000702,1299.082299400121,"['3', '2', '2']","[1.1425737999379635, 1.6622969000600278]","[0.21577210002578795, 0.09748329990543425]",3,2,2,719,001,2024-10-31_12h47.46.785,Trial_mult,2023.2.1,60.00938539962185,2024-10-31 12h47.57.659379 -0400,
131,block4_trial11_attendright_leadmasker.wav,0,130,130,130,1301.1000243001617,,,,,,,1301.1001019000541,1301.1165291999932,2.0178080999758095,1306.9712925001513,1306.9713054001331,1306.9879409000278,1306.9879409000278,1308.4568894000258,"['3', '3', '1']","[0.9541162000969052, 1.1854134001769125]","[0.12691339990124106, 0.13638639985583723]",3,3,1,719,001,2024-10-31_12h47.46.785,Trial_mult,2023.2.1,60.00938539962185,2024-10-31 12h47.57.659379 -0400,
132,block4_trial12_attendleft_leadmasker.wav,0,131,131,131,1310.4740747001488,,,,,,,1310.4741483000107,1310.490633700043,2.01703490014188,1316.3455074001104,1316.3455183999613,1316.362445600098,1316.362445600098,1317.780420300085,"['1', '3', '1']","[1.0355308998841792, 1.2515074000693858]","[0.17555350018665195, 0.14351229998283088]",1,3,1,719,001,2024-10-31_12h47.46.785,Trial_mult,2023.2.1,60.00938539962185,2024-10-31 12h47.57.659379 -0400,
133,block4_trial13_attendleft_leadmasker.wav,0,132,132,132,1319.7982505999971,,,,,,,1319.7983280001208,1319.8147013001144,2.0186242000199854,1325.6362239001319,1325.6362350001,1325.6529445000924,1325.6529445000924,1328.639217399992,"['2', '3', '3']","[2.1920086001046, 2.815817200113088]","[0.13581010000780225, 0.08004299993626773]",2,3,3,719,001,2024-10-31_12h47.46.785,Trial_mult,2023.2.1,60.00938539962185,2024-10-31 12h47.57.659379 -0400,
134,block4_trial14_attendleft_leadmasker.wav,0,133,133,133,1330.6570316001307,,,,,,,1330.6571087001357,1330.6737802000716,2.017653699964285,1336.494722200092,1336.494732500054,1336.5108767000493,1336.5108767000493,1338.1474781001452,"['1', '3', '1']","[1.2849656001199037, 1.4934306000359356]","[0.16136839985847473, 0.11247749999165535]",1,3,1,719,001,2024-10-31_12h47.46.785,Trial_mult,2023.2.1,60.00938539962185,2024-10-31 12h47.57.659379 -0400,
135,block4_trial15_attendleft_leadtarget.wav,0,134,134,134,1340.1645235000178,,,,,,,1340.1646013001446,1340.1811286001466,2.0157308001071215,1346.0191373000853,1346.0191476000473,1346.0355826001614,1346.0355826001614,1346.7036677000578,"['1', '2', '1']","[0.3705004998482764, 0.5604594999458641]","[0.12728350004181266, 0.1051974999718368]",1,2,1,719,001,2024-10-31_12h47.46.785,Trial_mult,2023.2.1,60.00938539962185,2024-10-31 12h47.57.659379 -0400,
136,block4_trial16_attendright_leadtarget.wav,0,135,135,135,1348.721466399962,,,,,,,1348.7215369001497,1348.73779439996,2.0181857999414206,1354.5592660000548,1354.5592762001324,1354.575741500128,1354.575741500128,1355.5774972999934,"['3', '3', '1']","[0.6045061000622809, 0.7809283998794854]","[0.09590610000304878, 0.1359421000815928]",3,3,1,719,001,2024-10-31_12h47.46.785,Trial_mult,2023.2.1,60.00938539962185,2024-10-31 12h47.57.659379 -0400,
137,block4_trial17_attendleft_leadmasker.wav,0,136,136,136,1357.5952708001714,,,,,,,1357.5953468000516,1357.611868900014,2.017439299961552,1363.4334289999679,1363.433439400047,1363.4499834000599,1363.4499834000599,1364.9021422001533,"['2', '1', '3']","[0.9706097999587655, 1.2436924998182803]","[0.16007039998658001, 0.12728380016051233]",2,1,3,719,001,2024-10-31_12h47.46.785,Trial_mult,2023.2.1,60.00938539962185,2024-10-31 12h47.57.659379 -0400,
138,block4_trial18_attendright_leadmasker.wav,0,137,137,137,1366.919014800107,,,,,,,1366.9190867000725,1366.936149700079,2.017238700063899,1372.7738724001683,1372.7738831001334,1372.790025500115,1372.790025500115,1374.309689000016,"['3', '3', '2']","[1.0303658999036998, 1.230364799965173]","[0.12067480012774467, 0.11996580008417368]",3,3,2,719,001,2024-10-31_12h47.46.785,Trial_mult,2023.2.1,60.00938539962185,2024-10-31 12h47.57.659379 -0400,
139,block4_trial19_attendright_leadtarget.wav,0,138,138,138,1376.326940700179,,,,,,,1376.3270076001063,1376.3441215001512,2.0170423998497427,1382.1984516000375,1382.1984614999965,1382.2148963999934,1382.2148963999934,1382.932932100026,"['3', '3', '3']","[0.38200500002130866, 0.5505743999965489]","[0.1036141999065876, 0.0951523999683559]",3,3,3,719,001,2024-10-31_12h47.46.785,Trial_mult,2023.2.1,60.00938539962185,2024-10-31 12h47.57.659379 -0400,
140,block4_trial20_attendleft_leadtarget.wav,0,139,139,139,1384.9507912001573,,,,,,,1384.9508669001516,1384.9669335000217,2.0173458999488503,1390.7884879000485,1390.7884977001231,1390.8047849000432,1390.8047849000432,1392.6406849999912,"['2', '3', '2']","[1.0165142000187188, 1.6568647001404315]","[0.07224590005353093, 0.12701669987291098]",2,3,2,719,001,2024-10-31_12h47.46.785,Trial_mult,2023.2.1,60.00938539962185,2024-10-31 12h47.57.659379 -0400,
141,block4_trial21_attendleft_leadtarget.wav,0,140,140,140,1394.6582403001375,,,,,,,1394.6583157000132,1394.6747833001427,2.017107699997723,1400.4964668999892,1400.4964769999497,1400.5129393001553,1400.5129393001553,1402.2815553001128,"['2', '3', '2']","[1.4517926000989974, 1.5968212001025677]","[0.12876840005628765, 0.1345348998438567]",2,3,2,719,001,2024-10-31_12h47.46.785,Trial_mult,2023.2.1,60.00938539962185,2024-10-31 12h47.57.659379 -0400,
142,block4_trial22_attendright_leadtarget.wav,0,141,141,141,1404.2989411000162,,,,,,,1404.2990099000745,1404.3157033000607,2.0185959998052567,1410.1538416000549,1410.1538521000184,1410.1703793001361,1410.1703793001361,1412.7235678001307,"['1', '2', '3']","[1.8429979998618364, 2.250342099927366]","[0.16746280016377568, 0.10349539993330836]",1,2,3,719,001,2024-10-31_12h47.46.785,Trial_mult,2023.2.1,60.00938539962185,2024-10-31 12h47.57.659379 -0400,
143,block4_trial23_attendleft_leadmasker.wav,0,142,142,142,1414.741463799961,,,,,,,1414.7415400999598,1414.7576925000176,2.0170646000187844,1420.59542779997,1420.595438200049,1420.6119039000478,1420.6119039000478,1422.7650115999859,"['3', '2', '1']","[1.7364254998974502, 1.9365944999735802]","[0.1444646001327783, 0.13591439998708665]",3,2,1,719,001,2024-10-31_12h47.46.785,Trial_mult,2023.2.1,60.00938539962185,2024-10-31 12h47.57.659379 -0400,
144,block4_trial24_attendright_leadmasker.wav,0,143,143,143,1424.782470999984,,,,,,,1424.7825450999662,1424.798929200042,2.017106000101194,1430.6367336001713,1430.6367443001363,1430.6534172999673,1430.6534172999673,1431.8554940000176,"['2', '2', '2']","[0.7764264000579715, 1.0068288000766188]","[0.11888460000045598, 0.10473260004073381]",2,2,2,719,001,2024-10-31_12h47.46.785,Trial_mult,2023.2.1,60.00938539962185,2024-10-31 12h47.57.659379 -0400,
145,block4_trial25_attendleft_leadtarget.wav,0,144,144,144,1433.8727837000042,,,,,,,1433.872857999988,1433.8895307001658,2.018129700096324,1439.7271132001188,1439.7271229000762,1439.743718800135,1439.743718800135,1441.1627661001403,"['1', '3', '2']","[0.5721507999114692, 1.1652007999364287]","[0.12123310007154942, 0.08727900008670986]",1,3,2,719,001,2024-10-31_12h47.46.785,Trial_mult,2023.2.1,60.00938539962185,2024-10-31 12h47.57.659379 -0400,
146,block4_trial26_attendright_leadtarget.wav,0,145,145,145,1443.1805255999789,,,,,,,1443.1805982999504,1443.1973160000052,2.016814999980852,1449.018311199965,1449.0183219001628,1449.0355746001005,1449.0355746001005,1450.6378713999875,"['1', '3', '3']","[1.0899384000804275, 1.4330087001435459]","[0.18306030007079244, 0.08952659997157753]",1,3,3,719,001,2024-10-31_12h47.46.785,Trial_mult,2023.2.1,60.00938539962185,2024-10-31 12h47.57.659379 -0400,
147,block4_trial27_attendright_leadmasker.wav,0,146,146,146,1452.654977899976,,,,,,,1452.6550521999598,1452.6711979999673,2.016222700010985,1458.4928892001044,1458.492899300065,1458.5099492999725,1458.5099492999725,1462.6459453001153,"['2', '1']","[1.086581900017336, 1.406197499949485]","[0.15178010007366538, 0.10484790010377765]",2,1,NA,719,001,2024-10-31_12h47.46.785,Trial_mult,2023.2.1,60.00938539962185,2024-10-31 12h47.57.659379 -0400,
148,block4_trial28_attendleft_leadtarget.wav,0,147,147,147,1464.6643934999593,,,,,,,1464.6644691000693,1468.5014828999992,2.0240694999229163,1468.5169889000244,1468.516998999985,1468.5336270001717,1468.5336270001717,1469.3190407999791,"['2', '3', '1']","[0.43133479985408485, 0.6233705000486225]","[0.16844540019519627, 0.14396489993669093]",2,3,1,719,001,2024-10-31_12h47.46.785,Trial_mult,2023.2.1,60.00938539962185,2024-10-31 12h47.57.659379 -0400,
149,block4_trial29_attendright_leadmasker.wav,0,148,148,148,1471.3362549000885,,,,,,,1471.336321900133,1471.3532504001632,2.017729200189933,1477.2077061000746,1477.2077165001538,1477.2242638000753,1477.2242638000753,1478.2097231999505,"['3', '1', '1']","[0.5652378001250327, 0.8289048001170158]","[0.11066409992054105, 0.07134829997085035]",3,1,1,719,001,2024-10-31_12h47.46.785,Trial_mult,2023.2.1,60.00938539962185,2024-10-31 12h47.57.659379 -0400,
150,block4_trial30_attendright_leadtarget.wav,0,149,149,149,1480.2269916001242,,,,,,,1480.2270685001276,1480.243796700146,2.0176144000142813,1486.0819425999653,1486.081953200046,1486.098364100093,1486.098364100093,1487.9505116001237,"['3', '3', '2']","[1.466588799841702, 1.6099768998101354]","[0.08742290013469756, 0.10450350004248321]",3,3,2,719,001,2024-10-31_12h47.46.785,Trial_mult,2023.2.1,60.00938539962185,2024-10-31 12h47.57.659379 -0400,
151,block4_trial31_attendleft_leadtarget.wav,0,150,150,150,1489.9684764000122,,,,,,,1489.9685460999608,1489.984765500063,2.0182064999826252,1495.839295499958,1495.8393060001545,1495.8554806001484,1495.8554806001484,1497.091248900164,"['1', '1', '1']","[0.9327130999881774, 1.0927935999352485]","[0.09674629988148808, 0.07195660006254911]",1,1,1,719,001,2024-10-31_12h47.46.785,Trial_mult,2023.2.1,60.00938539962185,2024-10-31 12h47.57.659379 -0400,
152,block4_trial32_attendright_leadtarget.wav,0,151,151,151,1499.1087257000618,,,,,,,1499.1087996000424,1499.125070600072,2.0174431002233177,1504.9804907999933,1504.9805012000725,1504.9965992001817,1504.9965992001817,1506.5656999000348,"['3', '2', '3']","[1.2317456000018865, 1.4321572999469936]","[0.1520054000429809, 0.13515540002845228]",3,2,3,719,001,2024-10-31_12h47.46.785,Trial_mult,2023.2.1,60.00938539962185,2024-10-31 12h47.57.659379 -0400,
153,block4_trial33_attendright_leadmasker.wav,0,152,152,152,1508.5832388000563,,,,,,,1508.583315800177,1508.5995139000006,2.017752100015059,1514.454937600065,1514.4549488001503,1514.4711879000533,1514.4711879000533,1515.890049500158,"['3', '2', '1']","[1.0851264998782426, 1.2687870999798179]","[0.1218238000292331, 0.10430509992875159]",3,2,1,719,001,2024-10-31_12h47.46.785,Trial_mult,2023.2.1,60.00938539962185,2024-10-31 12h47.57.659379 -0400,
154,block4_trial34_attendleft_leadtarget.wav,0,153,153,153,1517.9069308000617,,,,,,,1517.9069992001168,1517.9237478000578,2.0160374001134187,1523.7451472000685,1523.745157700032,1523.7620741000865,1523.7620741000865,1525.4138760000933,"['2', '2', '3']","[1.146788700018078, 1.3392149999272078]","[0.11166139994747937, 0.14326540008187294]",2,2,3,719,001,2024-10-31_12h47.46.785,Trial_mult,2023.2.1,60.00938539962185,2024-10-31 12h47.57.659379 -0400,
155,block4_trial35_attendleft_leadmasker.wav,0,154,154,154,1527.431823000079,,,,,,,1527.4318995000795,1527.4478315000888,2.017740200040862,1533.30270130001,1533.302711599972,1533.3190911000129,1533.3190911000129,1534.6718737999909,"['2', '2', '3']","[0.9098645001649857, 1.1413416001014411]","[0.1201098000165075, 0.10483579989522696]",2,2,3,719,001,2024-10-31_12h47.46.785,Trial_mult,2023.2.1,60.00938539962185,2024-10-31 12h47.57.659379 -0400,
156,block4_trial36_attendright_leadtarget.wav,0,155,155,155,1536.6887127000373,,,,,,,1536.688787000021,1536.706117700087,2.017108300002292,1542.5434292999562,1542.5434395000339,1542.5596124001313,1542.5596124001313,1544.763029300142,"['3', '2', '2']","[1.646386899985373, 2.046937100123614]","[0.12793370010331273, 0.07041769986972213]",3,2,2,719,001,2024-10-31_12h47.46.785,Trial_mult,2023.2.1,60.00938539962185,2024-10-31 12h47.57.659379 -0400,
157,block4_trial37_attendleft_leadtarget.wav,0,156,156,156,1546.7807467000093,,,,,,,1546.7808239001315,1546.7969504999928,2.0166180999949574,1552.618169200141,1552.6181797999889,1552.6345349000767,1552.6345349000767,1554.7707396000624,"['1', '1', '3']","[1.6896097999997437, 1.898219200083986]","[0.06404380011372268, 0.09609659994021058]",1,1,3,719,001,2024-10-31_12h47.46.785,Trial_mult,2023.2.1,60.00938539962185,2024-10-31 12h47.57.659379 -0400,
158,block4_trial38_attendleft_leadmasker.wav,0,157,157,157,1556.7880222001113,,,,,,,1556.7880890001543,1556.8051210001577,2.018350400030613,1562.6601676000282,1562.6601788001135,1562.6765771000646,1562.6765771000646,1564.1952669001184,"['3', '3', '1']","[0.9682496001478285, 1.1519261000212282]","[0.0966147999279201, 0.16841819998808205]",3,3,1,719,001,2024-10-31_12h47.46.785,Trial_mult,2023.2.1,60.00938539962185,2024-10-31 12h47.57.659379 -0400,
159,block4_trial39_attendleft_leadmasker.wav,0,158,158,158,1566.212784399977,,,,,,,1566.212858499959,1566.2295433001127,2.017518399981782,1572.0841182000004,1572.0841282999609,1572.1003658000845,1572.1003658000845,1574.1865911001805,"['3', '1', '2']","[1.6168756999541074, 1.8564776999410242]","[0.15098220016807318, 0.15931670018471777]",3,1,2,719,001,2024-10-31_12h47.46.785,Trial_mult,2023.2.1,60.00938539962185,2024-10-31 12h47.57.659379 -0400,
160,block4_trial40_attendleft_leadtarget.wav,0,159,159,159,1576.2042394001037,,,,,,,1576.2043173001148,1576.2207688000053,2.0177833000198007,1582.0748745000456,1582.0748848000076,1582.0913158999756,1582.0913158999756,1584.2447950001806,"['2', '1', '3']","[1.3289604000747204, 1.8492747999262065]","[0.09612690005451441, 0.11190340016037226]",2,1,3,719,001,2024-10-31_12h47.46.785,Trial_mult,2023.2.1,60.00938539962185,2024-10-31 12h47.57.659379 -0400,
161,block5_trial1_attendleft_leadtarget.wav,0,160,160,160,1586.2621151001658,,,,,,,1636.601669399999,1636.6185197001323,2.018944500014186,1642.4408360000234,1642.440846499987,1642.4573756000027,1642.4573756000027,1646.5936950000469,"['3', '1']","[1.338664900045842, 1.723331900080666]","[0.11209439998492599, 0.0877702001016587]",3,1,NA,719,001,2024-10-31_12h47.46.785,Trial_mult,2023.2.1,60.00938539962185,2024-10-31 12h47.57.659379 -0400,
162,block5_trial2_attendleft_leadmasker.wav,0,161,161,161,1648.6120919999667,,,,,,,1648.6121652000584,1652.4482718999498,2.0265458000358194,1652.4648772999644,1652.46488900017,1652.4811868001707,1652.4811868001707,1653.5335913000163,"['2', '3', '2']","[0.5722369998693466, 0.8192682999651879]","[0.14388880017213523, 0.14381829998455942]",2,3,2,719,001,2024-10-31_12h47.46.785,Trial_mult,2023.2.1,60.00938539962185,2024-10-31 12h47.57.659379 -0400,
163,block5_trial3_attendleft_leadtarget.wav,0,162,162,162,1655.5514243000653,,,,,,,1655.5515001001768,1655.5676772999577,2.015724499942735,1661.3889322001487,1661.3889423999935,1661.4054656000808,1661.4054656000808,1662.390651700087,"['3', '3', '3']","[0.5025650998577476, 0.7751418999396265]","[0.14504590001888573, 0.11248690006323159]",3,3,3,719,001,2024-10-31_12h47.46.785,Trial_mult,2023.2.1,60.00938539962185,2024-10-31 12h47.57.659379 -0400,
164,block5_trial4_attendleft_leadtarget.wav,0,163,163,163,1664.4081052001566,,,,,,,1664.4081835001707,1664.4248000001535,2.0174122999887913,1670.2622620000038,1670.2622720999643,1670.2788666000124,1670.2788666000124,1671.3816486999858,"['2', '1', '3']","[0.6214697998948395, 0.8460750000085682]","[0.16106349998153746, 0.1438420000486076]",2,1,3,719,001,2024-10-31_12h47.46.785,Trial_mult,2023.2.1,60.00938539962185,2024-10-31 12h47.57.659379 -0400,
165,block5_trial5_attendleft_leadmasker.wav,0,164,164,164,1673.398542500101,,,,,,,1673.3986166999675,1673.415357900085,2.016190000111237,1679.2701375000179,1679.2701483999845,1679.286509500118,1679.286509500118,1680.4722043001093,"['2', '1', '2']","[0.6793070000130683, 0.9506827001459897]","[0.15042610000818968, 0.15104159992188215]",2,1,2,719,001,2024-10-31_12h47.46.785,Trial_mult,2023.2.1,60.00938539962185,2024-10-31 12h47.57.659379 -0400,
166,block5_trial6_attendleft_leadtarget.wav,0,165,165,165,1682.48955700011,,,,,,,1682.489635300124,1682.5060783000663,2.0179087000433356,1688.3604602001142,1688.3604723999742,1688.3770924999844,1688.3770924999844,1690.2963131000288,"['3', '1', '1']","[1.3079757001250982, 1.707251800224185]","[0.13563770009204745, 0.08812829991802573]",3,1,1,719,001,2024-10-31_12h47.46.785,Trial_mult,2023.2.1,60.00938539962185,2024-10-31 12h47.57.659379 -0400,
167,block5_trial7_attendright_leadmasker.wav,0,166,166,166,1692.3137805999722,,,,,,,1692.313855000073,1692.3308951000217,2.017017300007865,1698.1684356001206,1698.1684459000826,1698.1851574000902,1698.1851574000902,1699.7205197000876,"['1', '2', '2']","[0.9878422000911087, 1.3809873000718653]","[0.10393660003319383, 0.06987569993361831]",1,2,2,719,001,2024-10-31_12h47.46.785,Trial_mult,2023.2.1,60.00938539962185,2024-10-31 12h47.57.659379 -0400,
168,block5_trial8_attendright_leadtarget.wav,0,167,167,167,1701.7383042001165,,,,,,,1701.7383722001687,1701.7545571001247,2.0174485000316054,1707.5928307999857,1707.592841300182,1707.6092284000479,1707.6092284000479,1709.245219600154,"['2', '3', '2']","[1.1307011998724192, 1.403005399974063]","[0.14492780016735196, 0.12856999994255602]",2,3,2,719,001,2024-10-31_12h47.46.785,Trial_mult,2023.2.1,60.00938539962185,2024-10-31 12h47.57.659379 -0400,
169,block5_trial9_attendleft_leadmasker.wav,0,168,168,168,1711.262364400085,,,,,,,1711.2624310001265,1711.2787856999785,2.0174003997817636,1717.117438300047,1717.1174499001354,1717.1338131001685,1717.1338131001685,1718.5357097999658,"['1', '2', '2']","[0.9746087999083102, 1.2543458000291139]","[0.09601429989561439, 0.056289699859917164]",1,2,2,719,001,2024-10-31_12h47.46.785,Trial_mult,2023.2.1,60.00938539962185,2024-10-31 12h47.57.659379 -0400,
170,block5_trial10_attendleft_leadtarget.wav,0,169,169,169,1720.5529756001197,,,,,,,1720.5530495001003,1720.570242300164,2.018126599956304,1726.408026700141,1726.4080374999903,1726.4242646000348,1726.4242646000348,1728.9280509999953,"['3', '1', '2']","[2.0764731999952346, 2.308560200035572]","[0.15255690016783774, 0.14333120011724532]",3,1,2,719,001,2024-10-31_12h47.46.785,Trial_mult,2023.2.1,60.00938539962185,2024-10-31 12h47.57.659379 -0400,
171,block5_trial11_attendleft_leadtarget.wav,0,170,170,170,1730.9446600000374,,,,,,,1730.9447260999586,1730.9613036999945,2.0175487000960857,1736.798947100062,1736.7989572000224,1736.8155128001235,1736.8155128001235,1738.8353346001823,"['2', '1', '1']","[1.4448752999305725, 1.813164799939841]","[0.1276563999708742, 0.10380899999290705]",2,1,1,719,001,2024-10-31_12h47.46.785,Trial_mult,2023.2.1,60.00938539962185,2024-10-31 12h47.57.659379 -0400,
172,block5_trial12_attendleft_leadmasker.wav,0,171,171,171,1740.8532452001236,,,,,,,1740.8533227001317,1740.8695918000303,2.0175771000795066,1746.6906433000695,1746.6906539001502,1746.7067748000845,1746.7067748000845,1747.7094313001726,"['2', '3', '2']","[0.4736045999452472, 0.7553084001410753]","[0.16010290011763573, 0.14375249994918704]",2,3,2,719,001,2024-10-31_12h47.46.785,Trial_mult,2023.2.1,60.00938539962185,2024-10-31 12h47.57.659379 -0400,
173,block5_trial13_attendleft_leadmasker.wav,0,172,172,172,1749.7267096999567,,,,,,,1749.7267928000074,1749.7430527000688,2.0172480000182986,1755.5649035000242,1755.5649141999893,1755.581370000029,1755.581370000029,1756.9996913999785,"['1', '3', '2']","[0.9836361999623477, 1.2076145000755787]","[0.11906190006993711, 0.1270770998671651]",1,3,2,719,001,2024-10-31_12h47.46.785,Trial_mult,2023.2.1,60.00938539962185,2024-10-31 12h47.57.659379 -0400,
174,block5_trial14_attendleft_leadmasker.wav,0,173,173,173,1759.0181114999577,,,,,,,1759.01818870008,1759.034301100066,2.017794500105083,1764.8553216999862,1764.8553329000715,1764.872201899998,1764.872201899998,1766.958008200163,"['1', '3', '1']","[1.2523463000543416, 1.652371299918741]","[0.1917018999811262, 0.13699880009517074]",1,3,1,719,001,2024-10-31_12h47.46.785,Trial_mult,2023.2.1,60.00938539962185,2024-10-31 12h47.57.659379 -0400,
175,block5_trial15_attendright_leadmasker.wav,0,174,174,174,1768.9754727000836,,,,,,,1768.9755470000673,1768.9921395001002,2.0174778001382947,1774.8461371001322,1774.8461468000896,1774.862787900027,1774.862787900027,1775.7820127001032,"['3', '2', '3']","[0.5588444999884814, 0.766208800021559]","[0.11928430013358593, 0.10322930011898279]",3,2,3,719,001,2024-10-31_12h47.46.785,Trial_mult,2023.2.1,60.00938539962185,2024-10-31 12h47.57.659379 -0400,
176,block5_trial16_attendright_leadtarget.wav,0,175,175,175,1777.799097900046,,,,,,,1777.7991749001667,1777.815575200133,2.0160175999626517,1783.6537550999783,1783.653764900053,1783.6705017001368,1783.6705017001368,1784.4048047000542,"['2', '3', '2']","[0.3499066000804305, 0.5333899001125246]","[0.11306979996152222, 0.13772809994406998]",2,3,2,719,001,2024-10-31_12h47.46.785,Trial_mult,2023.2.1,60.00938539962185,2024-10-31 12h47.57.659379 -0400,
177,block5_trial17_attendleft_leadmasker.wav,0,176,176,176,1786.4230691001285,,,,,,,1786.4231454001274,1786.439533200115,2.01759049994871,1792.2939760000445,1792.2939858001191,1792.310884000035,1792.310884000035,1793.5628160000779,"['2', '1', '2']","[0.8774564999621361, 1.061320599867031]","[0.12945690006017685, 0.1451495001092553]",2,1,2,719,001,2024-10-31_12h47.46.785,Trial_mult,2023.2.1,60.00938539962185,2024-10-31 12h47.57.659379 -0400,
178,block5_trial18_attendright_leadmasker.wav,0,177,177,177,1795.5799770001322,,,,,,,1795.5800516000018,1795.5972615999635,2.0178572998847812,1801.4519866001792,1801.4519970000256,1801.4686484001577,1801.4686484001577,1804.2546155001037,"['1', '2', '3']","[2.0716394998598844, 2.536088699940592]","[0.13789890008047223, 0.08744750008918345]",1,2,3,719,001,2024-10-31_12h47.46.785,Trial_mult,2023.2.1,60.00938539962185,2024-10-31 12h47.57.659379 -0400,
179,block5_trial19_attendright_leadtarget.wav,0,178,178,178,1806.2718809000216,,,,,,,1806.2719583001453,1806.288945700042,2.01759499986656,1812.1267660001758,1812.1267761001363,1812.1438935000915,1812.1438935000915,1813.1452971999533,"['1', '2', '3']","[0.6699807001277804, 0.8453162999358028]","[0.12727379985153675, 0.15179100004024804]",1,2,3,719,001,2024-10-31_12h47.46.785,Trial_mult,2023.2.1,60.00938539962185,2024-10-31 12h47.57.659379 -0400,
180,block5_trial20_attendright_leadtarget.wav,0,179,179,179,1815.1621755999513,,,,,,,1815.1622308001388,1815.1798269001301,2.0173741998150945,1821.0006170000415,1821.0006276001222,1821.0173856001347,1821.0173856001347,1822.3024126000237,"['1', '3', '3']","[0.7633655001409352, 1.1090875000227243]","[0.11115729995071888, 0.08560500014573336]",1,3,3,719,001,2024-10-31_12h47.46.785,Trial_mult,2023.2.1,60.00938539962185,2024-10-31 12h47.57.659379 -0400,
181,block5_trial21_attendleft_leadtarget.wav,0,180,180,180,1824.320059900172,,,,,,,1824.3201395000797,1824.3366374000907,2.016962599940598,1830.1918856999837,1830.1918961000629,1830.2082400999498,1830.2082400999498,1830.9930656000506,"['3', '3', '1']","[0.38013349985703826, 0.5407243999652565]","[0.07999130012467504, 0.11913740006275475]",3,3,1,719,001,2024-10-31_12h47.46.785,Trial_mult,2023.2.1,60.00938539962185,2024-10-31 12h47.57.659379 -0400,
182,block5_trial22_attendright_leadtarget.wav,0,181,181,181,1833.0098460000008,,,,,,,1833.0099153001793,1833.0264710001647,2.017269500065595,1838.881699200021,1838.8817102001049,1838.8981463999953,1838.8981463999953,1840.1170308000874,"['2', '3', '2']","[0.7550242999568582, 1.0019654999487102]","[0.1602795000653714, 0.15220459992997348]",2,3,2,719,001,2024-10-31_12h47.46.785,Trial_mult,2023.2.1,60.00938539962185,2024-10-31 12h47.57.659379 -0400,
183,block5_trial23_attendleft_leadmasker.wav,0,182,182,182,1842.134248400107,,,,,,,1842.134324700106,1842.1511289000046,2.0166831000242382,1847.9716690999921,1847.9716791999526,1847.9886380999815,1847.9886380999815,1849.1903509001713,"['2', '3', '1']","[0.7688428999390453, 0.9846459999680519]","[0.15136680006980896, 0.1372613999992609]",2,3,1,719,001,2024-10-31_12h47.46.785,Trial_mult,2023.2.1,60.00938539962185,2024-10-31 12h47.57.659379 -0400,
184,block5_trial24_attendleft_leadtarget.wav,0,183,183,183,1851.2083191000856,,,,,,,1851.2083936000708,1851.2245100000873,2.01804510015063,1857.0798645999748,1857.0798749001697,1857.0960733999964,1857.0960733999964,1858.114821500145,"['2', '2', '3']","[0.5816683999728411, 0.7645860000047833]","[0.0866849001031369, 0.09693460003472865]",2,2,3,719,001,2024-10-31_12h47.46.785,Trial_mult,2023.2.1,60.00938539962185,2024-10-31 12h47.57.659379 -0400,
185,block5_trial25_attendright_leadmasker.wav,0,184,184,184,1860.1317132001277,,,,,,,1860.1317871999927,1860.148856200045,2.0170505999121815,1866.003513700096,1866.0035308001097,1866.0197775000706,1866.0197775000706,1867.3055098000914,"['2', '2', '3']","[0.45718879997730255, 0.8409319999627769]","[0.2730165000539273, 0.11170420004054904]",2,2,3,719,001,2024-10-31_12h47.46.785,Trial_mult,2023.2.1,60.00938539962185,2024-10-31 12h47.57.659379 -0400,
186,block5_trial26_attendleft_leadmasker.wav,0,185,185,185,1869.3225783000235,,,,,,,1869.3226473000832,1869.339041300118,2.01760709984228,1875.19427550002,1875.1942859000992,1875.2108185000252,1875.2108185000252,1876.86339329998,"['2', '3', '3']","[0.9776080001611263, 1.4736974001862109]","[0.15202379995025694, 0.11262169992551208]",2,3,3,719,001,2024-10-31_12h47.46.785,Trial_mult,2023.2.1,60.00938539962185,2024-10-31 12h47.57.659379 -0400,
187,block5_trial27_attendright_leadmasker.wav,0,186,186,186,1878.880872500129,,,,,,,1878.8809430999681,1878.8971985001117,2.0174418000970036,1884.7184005000163,1884.7184109000955,1884.735193300061,1884.735193300061,1885.9532981000375,"['2', '3', '1']","[0.6133864999283105, 0.8692350999917835]","[0.17628640006296337, 0.1437804999295622]",2,3,1,719,001,2024-10-31_12h47.46.785,Trial_mult,2023.2.1,60.00938539962185,2024-10-31 12h47.57.659379 -0400,
188,block5_trial28_attendright_leadmasker.wav,0,187,187,187,1887.9709783000872,,,,,,,1887.971060700016,1887.9877174999565,2.017980600008741,1893.809137500124,1893.8091482999735,1893.8249429001007,1893.8249429001007,1895.961684799986,"['3', '1', '2']","[1.8203517999500036, 1.9717006999999285]","[0.13639599992893636, 0.1438249999191612]",3,1,2,719,001,2024-10-31_12h47.46.785,Trial_mult,2023.2.1,60.00938539962185,2024-10-31 12h47.57.659379 -0400,
189,block5_trial29_attendright_leadmasker.wav,0,188,188,188,1897.9787534000352,,,,,,,1897.978820099961,1897.9954945000354,2.0177506001200527,1903.850803700043,1903.8508146000095,1903.8672514001373,1903.8672514001373,1907.8878772000317,"['1', '3', '2']","[3.5615010999608785, 3.7939128999132663]","[0.12070959992706776, 0.14351790002547204]",1,3,2,719,001,2024-10-31_12h47.46.785,Trial_mult,2023.2.1,60.00938539962185,2024-10-31 12h47.57.659379 -0400,
190,block5_trial30_attendright_leadmasker.wav,0,189,189,189,1909.9053110000677,,,,,,,1909.905388199957,1909.9217551001348,2.0178243000991642,1915.77613140014,1915.7761421999894,1915.792833799962,1915.792833799962,1917.2124388001394,"['2', '3', '2']","[1.1800102000124753, 1.267473799875006]","[0.09689709986560047, 0.14445620006881654]",2,3,2,719,001,2024-10-31_12h47.46.785,Trial_mult,2023.2.1,60.00938539962185,2024-10-31 12h47.57.659379 -0400,
191,block5_trial31_attendleft_leadtarget.wav,0,190,190,190,1919.229540700093,,,,,,,1919.2296164000873,1919.2458919000346,2.0175811999943107,1925.0675313000102,1925.0675419999752,1925.0843354000244,1925.0843354000244,1926.5858769000042,"['2', '2', '3']","[1.1690636998973787, 1.3040724999736995]","[0.06285140011459589, 0.11209250008687377]",2,2,3,719,001,2024-10-31_12h47.46.785,Trial_mult,2023.2.1,60.00938539962185,2024-10-31 12h47.57.659379 -0400,
192,block5_trial32_attendright_leadtarget.wav,0,191,191,191,1928.6032764001284,,,,,,,1928.603351800004,1928.619980999967,2.0175668001174927,1934.441678600153,1934.4416894000024,1934.4575932000298,1934.4575932000298,1936.3773934000637,"['3', '2', '3']","[1.5154399999883026, 1.6995882999617606, 1.8036114999558777]","[0.1285894000902772, 0.12753070006147027, 0.11225840006954968]",3,2,3,719,001,2024-10-31_12h47.46.785,Trial_mult,2023.2.1,60.00938539962185,2024-10-31 12h47.57.659379 -0400,
193,block5_trial33_attendright_leadmasker.wav,0,192,192,192,1938.3945133001544,,,,,,,1938.3945778000634,1938.4115104000084,2.0163614000193775,1944.249262599973,1944.249273300171,1944.266196800163,1944.266196800163,1945.2845578000415,"['1', '2', '2']","[0.5310850001405925, 0.8666819999925792]","[0.11087109986692667, 0.07119240006431937]",1,2,2,719,001,2024-10-31_12h47.46.785,Trial_mult,2023.2.1,60.00938539962185,2024-10-31 12h47.57.659379 -0400,
194,block5_trial34_attendright_leadtarget.wav,0,193,193,193,1947.3019624999724,,,,,,,1947.3020282001235,1947.318874000106,2.016652800142765,1953.156438600039,1953.1564492001198,1953.1728221001104,1953.1728221001104,1954.1418961000163,"['2', '2', '3']","[0.5995303997769952, 0.7759951998014003]","[0.10504360008053482, 0.09554230002686381]",2,2,3,719,001,2024-10-31_12h47.46.785,Trial_mult,2023.2.1,60.00938539962185,2024-10-31 12h47.57.659379 -0400,
195,block5_trial35_attendleft_leadtarget.wav,0,194,194,194,1956.1588961000089,,,,,,,1956.1590001999866,1956.1755148000084,2.0168033000081778,1962.0297862000298,1962.029796200106,1962.0463207000867,1962.0463207000867,1963.4653782001697,"['3', '1', '1']","[0.8230070997960865, 1.2235953998751938]","[0.1430712000001222, 0.10230739996768534]",3,1,1,719,001,2024-10-31_12h47.46.785,Trial_mult,2023.2.1,60.00938539962185,2024-10-31 12h47.57.659379 -0400,
196,block5_trial36_attendleft_leadmasker.wav,0,195,195,195,1965.4829206999857,,,,,,,1965.4829806000926,1965.4996862001717,2.0167166001629084,1971.3214345001616,1971.321444900008,1971.3378998001572,1971.3378998001572,1972.0896406001411,"['1', '2', '1']","[0.39581310003995895, 0.5700463999528438]","[0.09517219988629222, 0.10592889995314181]",1,2,1,719,001,2024-10-31_12h47.46.785,Trial_mult,2023.2.1,60.00938539962185,2024-10-31 12h47.57.659379 -0400,
197,block5_trial37_attendright_leadtarget.wav,0,196,196,196,1974.1065770999994,,,,,,,1974.1066561001353,1974.1231990000233,2.0180073000956327,1979.9618025000673,1979.96181420004,1979.9782627001405,1979.9782627001405,1980.7631542000454,"['3', '2', '2']","[0.37085320008918643, 0.6352369000669569]","[0.10424080002121627, 0.0470193000510335]",3,2,2,719,001,2024-10-31_12h47.46.785,Trial_mult,2023.2.1,60.00938539962185,2024-10-31 12h47.57.659379 -0400,
198,block5_trial38_attendright_leadtarget.wav,0,197,197,197,1982.780443600146,,,,,,,1982.7805157999974,1982.7972327000462,2.0173933000769466,1988.651523000095,1988.651533300057,1988.6680497999769,1988.6680497999769,1989.420192999998,"['1', '2', '3']","[0.3774987000506371, 0.5682908999733627]","[0.11080339993350208, 0.08193910005502403]",1,2,3,719,001,2024-10-31_12h47.46.785,Trial_mult,2023.2.1,60.00938539962185,2024-10-31 12h47.57.659379 -0400,
199,block5_trial39_attendright_leadmasker.wav,0,198,198,198,1991.4371193000115,,,,,,,1991.4371871000621,1991.4537299999502,2.0176407999824733,1997.2748551999684,1997.274865400046,1997.2916282000951,1997.2916282000951,1998.694462200161,"['1', '2', '3']","[1.1854790998622775, 1.297281599836424]","[0.09578780014999211, 0.09597850008867681]",1,2,3,719,001,2024-10-31_12h47.46.785,Trial_mult,2023.2.1,60.00938539962185,2024-10-31 12h47.57.659379 -0400,
200,block5_trial40_attendright_leadtarget.wav,0,199,199,199,2000.7115470999852,,,,,,,2000.7116229000967,2000.7284489001613,2.016742799896747,2006.5660490000155,2006.566059499979,2006.5826497999951,2006.5826497999951,2008.0354128000326,"['3', '1', '2']","[1.1257865000516176, 1.3096723000053316]","[0.14454229990951717, 0.12914639990776777]",3,1,2,719,001,2024-10-31_12h47.46.785,Trial_mult,2023.2.1,60.00938539962185,2024-10-31 12h47.57.659379 -0400,
201,block6_trial1_attendright_leadmasker.wav,0,200,200,200,2010.0527135999873,,,,,,,2055.4048907000106,2055.421392600052,2.018366300035268,2061.277046600124,2061.2770575000905,2061.2939045999665,2061.2939045999665,2062.1451147999614,"['2', '1', '3']","[0.5113750998862088, 0.7036830999422818]","[0.11999220005236566, 0.11075180000625551]",2,1,3,719,001,2024-10-31_12h47.46.785,Trial_mult,2023.2.1,60.00938539962185,2024-10-31 12h47.57.659379 -0400,
202,block6_trial2_attendright_leadmasker.wav,0,201,201,201,2064.1621734001674,,,,,,,2064.1622463001404,2064.178951299982,2.0173456000629812,2069.999880200019,2069.999890400097,2070.0164397000335,2070.0164397000335,2070.868384900037,"['1', '1', '2']","[0.4358231001533568, 0.6358645001892]","[0.08793359994888306, 0.13578639994375408]",1,1,2,719,001,2024-10-31_12h47.46.785,Trial_mult,2023.2.1,60.00938539962185,2024-10-31 12h47.57.659379 -0400,
203,block6_trial3_attendright_leadmasker.wav,0,202,202,202,2072.8861768001225,,,,,,,2072.886250599986,2072.9025358001236,2.017929300200194,2078.7410498999525,2078.7410602001473,2078.7575791999698,2078.7575791999698,2079.8591730000917,"['2', '3', '3']","[0.5024059000425041, 0.8868855000473559]","[0.12049030000343919, 0.09575049998238683]",2,3,3,719,001,2024-10-31_12h47.46.785,Trial_mult,2023.2.1,60.00938539962185,2024-10-31 12h47.57.659379 -0400,
204,block6_trial4_attendright_leadmasker.wav,0,203,203,203,2081.876384800067,,,,,,,2081.876461100066,2081.8934488999657,2.0182396001182497,2087.7482895001303,2087.748299600091,2087.764620000031,2087.764620000031,2089.8007966000587,"['1', '2', '3']","[1.6566351000219584, 1.8964333001058549]","[0.10284380009397864, 0.06403989996761084]",1,2,3,719,001,2024-10-31_12h47.46.785,Trial_mult,2023.2.1,60.00938539962185,2024-10-31 12h47.57.659379 -0400,
205,block6_trial5_attendleft_leadmasker.wav,0,204,204,204,2091.8179872001056,,,,,,,2091.8180629001,2091.8350409001578,2.0170017001219094,2097.6891153999604,2097.689126000041,2097.7056064000353,2097.7056064000353,2098.407521000132,"['3', '2', '1']","[0.3796153001021594, 0.5628945999778807]","[0.13637119997292757, 0.09608980012126267]",3,2,1,719,001,2024-10-31_12h47.46.785,Trial_mult,2023.2.1,60.00938539962185,2024-10-31 12h47.57.659379 -0400,
206,block6_trial6_attendleft_leadtarget.wav,0,205,205,205,2100.4250580000225,,,,,,,2100.4251335000154,2100.441689300118,2.0166760999709368,2106.279529500054,2106.2795403001364,2106.2961931000464,2106.2961931000464,2107.1811430000234,"['2', '3', '2']","[0.4927162998355925, 0.6925713999662548]","[0.1285317000001669, 0.11970130004920065]",2,3,2,719,001,2024-10-31_12h47.46.785,Trial_mult,2023.2.1,60.00938539962185,2024-10-31 12h47.57.659379 -0400,
207,block6_trial7_attendright_leadmasker.wav,0,206,206,206,2109.198342700023,,,,,,,2109.1984061000403,2109.2149804001674,2.01670189993456,2115.053831700003,2115.0538417999633,2115.0700586000457,2115.0700586000457,2115.9382499000058,"['1', '3', '2']","[0.43815879989415407, 0.6388473999686539]","[0.14421449997462332, 0.14415499987080693]",1,3,2,719,001,2024-10-31_12h47.46.785,Trial_mult,2023.2.1,60.00938539962185,2024-10-31 12h47.57.659379 -0400,
208,block6_trial8_attendleft_leadmasker.wav,0,207,207,207,2117.9557100001257,,,,,,,2117.9557783000637,2117.972817100119,2.01767580001615,2123.826965800021,2123.8269758999813,2123.843639400089,2123.843639400089,2126.647107700119,"['3', '2', '3']","[1.6169302999041975, 2.2569846999831498]","[0.152861800044775, 0.11955029983073473]",3,2,3,719,001,2024-10-31_12h47.46.785,Trial_mult,2023.2.1,60.00938539962185,2024-10-31 12h47.57.659379 -0400,
209,block6_trial9_attendright_leadtarget.wav,0,208,208,208,2128.664245400112,,,,,,,2128.664321700111,2128.6806384001393,2.015800799941644,2134.5020208000205,2134.502031600103,2134.518441500142,2134.518441500142,2136.488096400164,"['3', '3', '3']","[0.9022309000138193, 1.1914307998958975]","[0.12902069999836385, 0.13542770012281835]",3,3,3,719,001,2024-10-31_12h47.46.785,Trial_mult,2023.2.1,60.00938539962185,2024-10-31 12h47.57.659379 -0400,
210,block6_trial10_attendright_leadtarget.wav,0,209,209,209,2138.505232400028,,,,,,,2138.505307200132,2138.522285300074,2.0174034000374377,2144.35956849996,2144.3595787000377,2144.3764234001283,2144.3764234001283,2145.011810200056,"['2', '2', '2']","[0.33983869990333915, 0.4857161999680102]","[0.04960080003365874, 0.06197339994832873]",2,2,2,719,001,2024-10-31_12h47.46.785,Trial_mult,2023.2.1,60.00938539962185,2024-10-31 12h47.57.659379 -0400,
211,block6_trial11_attendright_leadmasker.wav,0,210,210,210,2147.029270700179,,,,,,,2147.0293391000014,2147.045598700177,2.01706360001117,2152.900543600088,2152.9005538001657,2152.917118600104,2152.917118600104,2154.5695983001497,"['1', '1', '2']","[1.2322300001978874, 1.398863400099799]","[0.06366689992137253, 0.06561590009368956]",1,1,2,719,001,2024-10-31_12h47.46.785,Trial_mult,2023.2.1,60.00938539962185,2024-10-31 12h47.57.659379 -0400,
212,block6_trial12_attendleft_leadmasker.wav,0,211,211,211,2156.5866539999843,,,,,,,2156.586752000032,2156.6032474001404,2.017726699821651,2162.457695099991,2162.4577053000685,2162.4743638001382,2162.4743638001382,2163.4262820000295,"['2', '2', '1']","[0.4119271000381559, 0.6017128000967205]","[0.10236319992691278, 0.13631279999390244]",2,2,1,719,001,2024-10-31_12h47.46.785,Trial_mult,2023.2.1,60.00938539962185,2024-10-31 12h47.57.659379 -0400,
213,block6_trial13_attendleft_leadtarget.wav,0,212,212,212,2165.4435253001284,,,,,,,2165.4435926000588,2165.4601272,2.0172619000077248,2171.281099300133,2171.281109899981,2171.29784260015,2171.29784260015,2172.183491999982,"['1', '1', '1']","[0.5709178000688553, 0.730544300051406]","[0.07178919995203614, 0.07191430008970201]",1,1,1,719,001,2024-10-31_12h47.46.785,Trial_mult,2023.2.1,60.00938539962185,2024-10-31 12h47.57.659379 -0400,
214,block6_trial14_attendright_leadtarget.wav,0,213,213,213,2174.201064400142,,,,,,,2174.2011405001394,2174.2172678001225,2.016865200130269,2180.0724492999725,2180.07245950005,2180.0888390999753,2180.0888390999753,2180.7404595001135,"['1', '1', '3']","[0.23718419997021556, 0.419596099993214]","[0.0873583999928087, 0.14444099995307624]",1,1,3,719,001,2024-10-31_12h47.46.785,Trial_mult,2023.2.1,60.00938539962185,2024-10-31 12h47.57.659379 -0400,
215,block6_trial15_attendleft_leadtarget.wav,0,214,214,214,2182.75744690001,,,,,,,2182.7575185000896,2182.7744198001456,2.0172647000290453,2188.612350899959,2188.612361300038,2188.6287157000042,2188.6287157000042,2190.0148561000824,"['3', '2', '2']","[0.9517609002068639, 1.2408282000105828]","[0.10563649982213974, 0.05538500007241964]",3,2,2,719,001,2024-10-31_12h47.46.785,Trial_mult,2023.2.1,60.00938539962185,2024-10-31 12h47.57.659379 -0400,
216,block6_trial16_attendright_leadtarget.wav,0,215,215,215,2192.0317930001765,,,,,,,2192.031866400037,2192.048562800046,2.016527700005099,2197.902960699983,2197.902971000178,2197.9198173000477,2197.9198173000477,2198.9221402001567,"['2', '1', '2']","[0.6051310999318957, 0.813605299917981]","[0.10307459998875856, 0.1356957999523729]",2,1,2,719,001,2024-10-31_12h47.46.785,Trial_mult,2023.2.1,60.00938539962185,2024-10-31 12h47.57.659379 -0400,
217,block6_trial17_attendright_leadmasker.wav,0,216,216,216,2200.9386396000627,,,,,,,2200.938704499975,2200.95542270015,2.0156340000685304,2206.8098991001025,2206.809909200063,2206.8265114000533,2206.8265114000533,2208.3455144001637,"['3', '1', '1']","[0.8744091999251395, 1.3457943999674171]","[0.17537480010651052, 0.08086819993332028]",3,1,1,719,001,2024-10-31_12h47.46.785,Trial_mult,2023.2.1,60.00938539962185,2024-10-31 12h47.57.659379 -0400,
218,block6_trial18_attendleft_leadtarget.wav,0,217,217,217,2210.363316199975,,,,,,,2210.3633924000897,2210.3800745999906,2.017876800149679,2216.23420549999,2216.2342155999504,2216.2504906000104,2216.2504906000104,2218.2539151001256,"['2', '3', '2']","[1.5699414999689907, 1.8182069000322372]","[0.10429699998348951, 0.0884284998755902]",2,3,2,719,001,2024-10-31_12h47.46.785,Trial_mult,2023.2.1,60.00938539962185,2024-10-31 12h47.57.659379 -0400,
219,block6_trial19_attendleft_leadmasker.wav,0,218,218,218,2220.271350100171,,,,,,,2220.271417400101,2220.287513599964,2.017461200011894,2226.1256093000993,2226.1256189001724,2226.1424175000284,2226.1424175000284,2227.7279928000644,"['2', '2', '3']","[1.2379821999929845, 1.3839465000201017]","[0.07333499984815717, 0.11119950003921986]",2,2,3,719,001,2024-10-31_12h47.46.785,Trial_mult,2023.2.1,60.00938539962185,2024-10-31 12h47.57.659379 -0400,
220,block6_trial20_attendleft_leadtarget.wav,0,219,219,219,2229.7458230999764,,,,,,,2229.745898900088,2229.7623539001215,2.0176645000465214,2235.5997115001082,2235.599722499959,2235.616182200145,2235.616182200145,2236.7021045000292,"['2', '3', '1']","[0.5414901000913233, 0.8446443001739681]","[0.23133459989912808, 0.1674344998318702]",2,3,1,719,001,2024-10-31_12h47.46.785,Trial_mult,2023.2.1,60.00938539962185,2024-10-31 12h47.57.659379 -0400,
221,block6_trial21_attendleft_leadmasker.wav,0,220,220,220,2238.719209500123,,,,,,,2238.7192772000562,2238.7361604000907,2.01778840017505,2244.5742095999885,2244.574219800066,2244.590465000132,2244.590465000132,2247.1268829000182,"['1', '2', '1']","[1.237908000126481, 2.3591903999913484]","[0.08772469987161458, 0.11852510017342865]",1,2,1,719,001,2024-10-31_12h47.46.785,Trial_mult,2023.2.1,60.00938539962185,2024-10-31 12h47.57.659379 -0400,
222,block6_trial22_attendleft_leadmasker.wav,0,221,221,221,2249.1441401001066,,,,,,,2249.1443209000863,2249.1607043000404,2.0173063999973238,2255.015490000136,2255.015500199981,2255.0318381001707,2255.0318381001707,2256.3509536001366,"['2', '1', '1']","[0.7327003001701087, 1.108518100110814]","[0.14359989995136857, 0.10564500000327826]",2,1,1,719,001,2024-10-31_12h47.46.785,Trial_mult,2023.2.1,60.00938539962185,2024-10-31 12h47.57.659379 -0400,
