Index,audio,trials.thisRepN,trials.thisTrialN,trials.thisN,trials.thisIndex,thisRow.t,notes,Instruction.started,Instructions.started,resp_start.started,Instruction.stopped,resp_start.keys,trial.started,cross.started,audio.started,trial.stopped,Responses.started,respp.started,key_resp.started,Responses.stopped,key_resp.keys,key_resp.rt,key_resp.duration,response1,response2,response3,participant,session,date,expName,psychopyVersion,frameRate,expStart,
,,,,,,,,0.013574299999959294,0.04679369999996652,0.04679369999996652,4.919034999999894,None,,,,,,,,,,,,,,,720,001,2024-11-20_17h24.27.720,Trial_mult,2023.2.1,59.96771338309516,2024-11-20 17h25.31.784983 -0500,
1,block1_trial1_attendright_leadmasker.wav,0,0,0,0,4.950636799999984,,,,,,,4.95070869999995,4.966915399999948,1.9996149999999489,10.772422099999972,10.77243319999991,10.788601599999993,10.788601599999993,12.791330099999982,"['1', '2', '3']","[0.8678713000000471, 1.667750700000056]","[0.07121359999996457, 0.06358120000004419]",1,2,3,720,001,2024-11-20_17h24.27.720,Trial_mult,2023.2.1,59.96771338309516,2024-11-20 17h25.31.784983 -0500,
2,block1_trial2_attendright_leadmasker.wav,0,1,1,1,12.8063128,,,,,,,12.80637779999995,12.823113299999932,2.0158402000000706,18.66196519999994,18.661975499999926,18.678400799999963,18.678400799999963,21.397813399999905,"['1', '3', '2']","[2.2013921999999866, 2.5291664000000083]","[0.07181049999996958, 0.08034059999999954]",1,3,2,720,001,2024-11-20_17h24.27.720,Trial_mult,2023.2.1,59.96771338309516,2024-11-20 17h25.31.784983 -0500,
3,block1_trial3_attendright_leadtarget.wav,0,2,2,2,21.41308129999993,,,,,,,21.413131499999963,21.43050149999999,2.016717999999969,27.252081499999917,27.252091199999995,27.26827359999993,27.26827359999993,29.270835399999896,"['1', '2', '3']","[1.282608200000027, 1.8508434000000307]","[0.08967459999996663, 0.10457840000003671]",1,2,3,720,001,2024-11-20_17h24.27.720,Trial_mult,2023.2.1,59.96771338309516,2024-11-20 17h25.31.784983 -0500,
4,block1_trial4_attendright_leadmasker.wav,0,3,3,3,29.286085399999934,,,,,,,29.2861347999999,29.303702499999986,2.0173663999999008,35.15808249999998,35.15809279999996,35.17498599999999,35.17498599999999,37.594509899999935,"['2', '1', '3']","[2.0797368000000915, 2.2565462000000025]","[0.09614639999995234, 0.07997710000006464]",2,1,3,720,001,2024-11-20_17h24.27.720,Trial_mult,2023.2.1,59.96771338309516,2024-11-20 17h25.31.784983 -0500,
5,block1_trial5_attendright_leadmasker.wav,0,4,4,4,37.609477099999935,,,,,,,37.609529799999905,37.62637189999998,2.0166093000000274,43.46561159999999,43.465621799999894,43.48197389999996,43.48197389999996,45.6344959999999,"['2', '3', '1']","[1.4934243000000151, 1.9576970000000529]","[0.11226209999995262, 0.09515490000001137]",2,3,1,720,001,2024-11-20_17h24.27.720,Trial_mult,2023.2.1,59.96771338309516,2024-11-20 17h25.31.784983 -0500,
6,block1_trial6_attendleft_leadtarget.wav,0,5,5,5,45.6492667,,,,,,,45.64931619999993,45.66668709999999,2.0169148999999607,51.50479839999991,51.50480859999993,51.52123629999994,51.52123629999994,54.52511479999998,"['3', '2', '1']","[2.3264809999999443, 2.615379399999938]","[0.09622680000006767, 0.09537730000010924]",3,2,1,720,001,2024-11-20_17h24.27.720,Trial_mult,2023.2.1,59.96771338309516,2024-11-20 17h25.31.784983 -0500,
7,block1_trial7_attendleft_leadtarget.wav,0,6,6,6,54.53972729999998,,,,,,,54.53978029999996,54.55670399999997,2.0165534000000207,60.412132399999905,60.4121437,60.42875719999995,60.42875719999995,63.432097999999996,"['1', '3', '2']","[1.0279391999999916, 2.8105218999999124]","[0.1428457999999182, 0.12788740000007692]",1,3,2,720,001,2024-11-20_17h24.27.720,Trial_mult,2023.2.1,59.96771338309516,2024-11-20 17h25.31.784983 -0500,
8,block1_trial8_attendleft_leadmasker.wav,0,7,7,7,63.44687709999994,,,,,,,63.446930899999984,63.46397349999995,2.016407999999956,69.33516039999995,69.33517109999991,69.35171579999997,69.35171579999997,71.67143399999998,"['2', '1', '3']","[1.5759329999999636, 1.9763950999999906]","[0.11986909999995987, 0.0956988000000365]",2,1,3,720,001,2024-11-20_17h24.27.720,Trial_mult,2023.2.1,59.96771338309516,2024-11-20 17h25.31.784983 -0500,
9,block1_trial9_attendleft_leadmasker.wav,0,8,8,8,71.68725889999996,,,,,,,71.68733509999993,71.7039777,2.0174319000000196,77.54225999999994,77.54226999999992,77.5588856999999,77.5588856999999,80.1620433999999,"['2', '1', '3']","[1.8011815999999499, 2.3206380999999965]","[0.08668290000002798, 0.10441719999994348]",2,1,3,720,001,2024-11-20_17h24.27.720,Trial_mult,2023.2.1,59.96771338309516,2024-11-20 17h25.31.784983 -0500,
10,block1_trial10_attendright_leadtarget.wav,0,9,9,9,80.17693479999991,,,,,,,80.1769857999999,80.1937486999999,2.0165602000000717,86.04915329999994,86.04916379999997,86.0657023,86.0657023,88.71907699999997,"['1', '3', '2']","[1.2620445000000018, 2.4529611000000386]","[0.11114450000002307, 0.13792899999998554]",1,3,2,720,001,2024-11-20_17h24.27.720,Trial_mult,2023.2.1,59.96771338309516,2024-11-20 17h25.31.784983 -0500,
11,block1_trial11_attendright_leadmasker.wav,0,10,10,10,88.73381139999992,,,,,,,88.7338651,88.75095259999989,2.016613800000073,94.5893231,94.58933409999997,94.60587409999994,94.60587409999994,97.77663899999993,"['1', '2', '3']","[2.657105500000057, 2.9136032000000114, 3.0504273999999896]","[0.1296258999999509, 0.17615580000006048, 0.1113781999999901]",1,2,3,720,001,2024-11-20_17h24.27.720,Trial_mult,2023.2.1,59.96771338309516,2024-11-20 17h25.31.784983 -0500,
12,block1_trial12_attendleft_leadtarget.wav,0,11,11,11,97.79145549999998,,,,,,,97.7915248999999,97.8081641,2.0162937000000056,103.64658539999994,103.64659589999997,103.6633566999999,103.6633566999999,105.1323180999999,"['1', '3', '2']","[0.9284194000000525, 1.1837110000000166]","[0.12027519999992364, 0.1607069000000365]",1,3,2,720,001,2024-11-20_17h24.27.720,Trial_mult,2023.2.1,59.96771338309516,2024-11-20 17h25.31.784983 -0500,
13,block1_trial13_attendright_leadmasker.wav,0,12,12,12,105.14699299999995,,,,,,,105.14704329999995,105.16461089999996,2.015929799999981,110.98613699999999,110.9861482,111.0027313999999,111.0027313999999,114.62248409999995,"['2', '2', '3']","[2.4758911000000126, 3.419846000000007]","[0.11332079999999678, 0.15207910000003722]",2,2,3,720,001,2024-11-20_17h24.27.720,Trial_mult,2023.2.1,59.96771338309516,2024-11-20 17h25.31.784983 -0500,
14,block1_trial14_attendright_leadtarget.wav,0,13,13,13,114.63851669999997,,,,,,,114.6385843999999,114.65466239999989,2.017416400000002,120.5103279,120.51033769999992,120.52713899999992,120.52713899999992,123.2800805999999,"['2', '1', '3']","[1.5856592999999748, 2.511466599999949]","[0.13444449999997232, 0.13794530000006944]",2,1,3,720,001,2024-11-20_17h24.27.720,Trial_mult,2023.2.1,59.96771338309516,2024-11-20 17h25.31.784983 -0500,
15,block1_trial15_attendleft_leadmasker.wav,0,14,14,14,123.29486789999999,,,,,,,123.29491699999994,123.31204089999994,2.01643039999999,129.15014629999996,129.15015589999996,129.16655839999999,129.16655839999999,131.71986029999994,"['2', '3', '1']","[2.1601799999999685, 2.3688091000000213]","[0.14443949999997585, 0.1351767999999538]",2,3,1,720,001,2024-11-20_17h24.27.720,Trial_mult,2023.2.1,59.96771338309516,2024-11-20 17h25.31.784983 -0500,
16,block1_trial16_attendleft_leadmasker.wav,0,15,15,15,131.73495079999998,,,,,,,131.73500389999992,131.7521807999999,2.01694150000003,137.64046259999998,137.64047399999993,137.65696589999993,137.65696589999993,140.37731029999998,"['2', '3', '1']","[1.5503942999999936, 2.2376968999999463]","[0.09655599999996411, 0.11302840000007564]",2,3,1,720,001,2024-11-20_17h24.27.720,Trial_mult,2023.2.1,59.96771338309516,2024-11-20 17h25.31.784983 -0500,
17,block1_trial17_attendleft_leadtarget.wav,0,16,16,16,140.3918923,,,,,,,140.3919436,140.40896809999992,2.0164525999999796,146.23066619999997,146.23067589999994,146.2472732,146.2472732,148.8171901999999,"['3', '2', '1']","[0.9674696999999242, 1.7353792000000112]","[0.15171230000009928, 0.16142949999994016]",3,2,1,720,001,2024-11-20_17h24.27.720,Trial_mult,2023.2.1,59.96771338309516,2024-11-20 17h25.31.784983 -0500,
18,block1_trial18_attendleft_leadtarget.wav,0,17,17,17,148.83199589999992,,,,,,,148.83204489999991,148.84910459999992,2.0164554000000408,154.6877465,154.6877601,154.70432069999993,154.70432069999993,156.77330729999994,"['2', '3', '1']","[1.1583478000000014, 1.6322269000000915]","[0.12101189999998496, 0.11113139999997657]",2,3,1,720,001,2024-11-20_17h24.27.720,Trial_mult,2023.2.1,59.96771338309516,2024-11-20 17h25.31.784983 -0500,
19,block1_trial19_attendright_leadtarget.wav,0,18,18,18,156.7883943999999,,,,,,,156.7884439999999,156.80555029999994,2.0164819000000307,162.67739599999993,162.6774064,162.69400029999997,162.69400029999997,164.2126963999999,"['1', '2', '3']","[0.9855580999999347, 1.2166719999999032, 1.3767032999999174]","[0.17683290000002216, 0.17575750000003154, 0.12790189999998347]",1,2,3,720,001,2024-11-20_17h24.27.720,Trial_mult,2023.2.1,59.96771338309516,2024-11-20 17h25.31.784983 -0500,
20,block1_trial20_attendright_leadtarget.wav,0,19,19,19,164.22851129999992,,,,,,,164.22858429999997,164.24486679999995,2.0168683000000556,170.09951849999993,170.09952859999999,170.11608379999996,170.11608379999996,172.06918129999997,"['2', '3', '1']","[1.2200365999999576, 1.6116756000000123]","[0.13573719999999412, 0.12892329999999674]",2,3,1,720,001,2024-11-20_17h24.27.720,Trial_mult,2023.2.1,59.96771338309516,2024-11-20 17h25.31.784983 -0500,
21,block1_trial21_attendright_leadtarget.wav,0,20,20,20,172.08402049999995,,,,,,,172.084072,172.1010723999999,2.0164579000000913,177.9561832999999,177.95619299999998,177.97262519999992,177.97262519999992,179.6258261999999,"['2', '3', '1']","[0.8899557000000868, 1.3958044000000882]","[0.16006819999995514, 0.1742320999999265]",2,3,1,720,001,2024-11-20_17h24.27.720,Trial_mult,2023.2.1,59.96771338309516,2024-11-20 17h25.31.784983 -0500,
22,block1_trial22_attendright_leadmasker.wav,0,21,21,21,179.64010309999992,,,,,,,179.6401613999999,179.65719849999994,2.015846300000021,185.51242149999996,185.512432,185.52861499999995,185.52861499999995,189.34916709999993,"['3', '2', '1']","[2.61525759999995, 3.0699977000000445]","[0.10386379999999917, 0.088695199999961]",3,2,1,720,001,2024-11-20_17h24.27.720,Trial_mult,2023.2.1,59.96771338309516,2024-11-20 17h25.31.784983 -0500,
23,block1_trial23_attendright_leadmasker.wav,0,22,22,22,189.3643962,,,,,,,189.36444849999998,189.3814524999999,2.0169883999999456,195.21998139999994,195.21999189999997,195.2363145999999,195.2363145999999,196.5052558,"['1', '2', '3']","[0.8424724999999853, 0.9790745000000243, 1.1157491000000164]","[0.15169439999999668, 0.16801239999995232, 0.14290110000001732]",1,2,3,720,001,2024-11-20_17h24.27.720,Trial_mult,2023.2.1,59.96771338309516,2024-11-20 17h25.31.784983 -0500,
24,block1_trial24_attendright_leadtarget.wav,0,23,23,23,196.5204774,,,,,,,196.52055109999992,196.53754849999996,2.01684709999995,202.3765583999999,202.37656859999993,202.3922063,202.3922063,203.8114453999999,"['2', '1', '3']","[0.8403722000000471, 1.1840918999999985]","[0.1262411999999813, 0.1113917999999785]",2,1,3,720,001,2024-11-20_17h24.27.720,Trial_mult,2023.2.1,59.96771338309516,2024-11-20 17h25.31.784983 -0500,
25,block1_trial25_attendright_leadtarget.wav,0,24,24,24,203.82621429999995,,,,,,,203.82627689999993,203.84352689999992,2.0163215999999693,209.66470529999992,209.66471539999998,209.68130929999995,209.68130929999995,212.40124159999993,"['1', '2', '3']","[1.4693172000000914, 2.51066220000007]","[0.12837739999997666, 0.13604580000003352]",1,2,3,720,001,2024-11-20_17h24.27.720,Trial_mult,2023.2.1,59.96771338309516,2024-11-20 17h25.31.784983 -0500,
26,block1_trial26_attendleft_leadmasker.wav,0,25,25,25,212.41634539999995,,,,,,,212.41639769999995,212.43322879999994,2.016973500000063,218.2545556,218.25456499999996,218.27108509999994,218.27108509999994,221.85922949999997,"['2', '1', '3']","[2.345449400000007, 3.3525942999999643]","[0.11968360000003031, 0.17489590000002408]",2,1,3,720,001,2024-11-20_17h24.27.720,Trial_mult,2023.2.1,59.96771338309516,2024-11-20 17h25.31.784983 -0500,
27,block1_trial27_attendleft_leadmasker.wav,0,26,26,26,221.87399719999996,,,,,,,221.87404989999993,221.89124629999992,2.016330700000026,227.72902909999993,227.72903989999998,227.74539529999993,227.74539529999993,231.4498640999999,"['2', '3', '1']","[1.797201399999949, 3.005062800000019]","[0.08988220000003366, 0.10532890000001771]",2,3,1,720,001,2024-11-20_17h24.27.720,Trial_mult,2023.2.1,59.96771338309516,2024-11-20 17h25.31.784983 -0500,
28,block1_trial28_attendleft_leadtarget.wav,0,27,27,27,231.46497139999997,,,,,,,231.46503069999994,231.48176999999998,2.0170987000000196,237.35407869999995,237.35408919999998,237.37062119999996,237.37062119999996,239.3401998999999,"['3', '2', '1']","[0.7730305000000044, 1.49987950000002]","[0.13580630000001293, 0.14423979999992298]",3,2,1,720,001,2024-11-20_17h24.27.720,Trial_mult,2023.2.1,59.96771338309516,2024-11-20 17h25.31.784983 -0500,
29,block1_trial29_attendright_leadmasker.wav,0,28,28,28,239.35463019999997,,,,,,,239.35468389999994,239.37160469999992,2.0160134999999855,245.19389109999997,245.1939011999999,245.2102706999999,245.2102706999999,248.43048449999992,"['3', '2', '1']","[1.2374779000000444, 3.020546000000081]","[0.11110169999994923, 0.10397449999993569]",3,2,1,720,001,2024-11-20_17h24.27.720,Trial_mult,2023.2.1,59.96771338309516,2024-11-20 17h25.31.784983 -0500,
30,block1_trial30_attendright_leadtarget.wav,0,29,29,29,248.44525169999997,,,,,,,248.4453041999999,248.46215089999998,2.016407299999969,254.3013342999999,254.30134439999995,254.3174828,254.3174828,256.9033391999999,"['3', '1', '2']","[1.9861243000000286, 2.401174900000001]","[0.10442349999993894, 0.11206019999997352]",3,1,2,720,001,2024-11-20_17h24.27.720,Trial_mult,2023.2.1,59.96771338309516,2024-11-20 17h25.31.784983 -0500,
31,block1_trial31_attendleft_leadtarget.wav,0,30,30,30,256.91897829999994,,,,,,,256.9190431999999,256.9355301999999,2.0168855999999096,262.79098179999994,262.79099199999996,262.80709939999997,262.80709939999997,263.75951669999995,"['1', '2', '3']","[0.5293814999999995, 0.6899998000000096, 0.8092077000000018]","[0.1591715000000704, 0.15911610000000564, 0.1358145000000377]",1,2,3,720,001,2024-11-20_17h24.27.720,Trial_mult,2023.2.1,59.96771338309516,2024-11-20 17h25.31.784983 -0500,
32,block1_trial32_attendleft_leadtarget.wav,0,31,31,31,263.7747657,,,,,,,263.7748464,263.79112669999995,2.016371499999991,269.62964079999995,269.6296514999999,269.6456169999999,269.6456169999999,271.4990780999999,"['2', '1', '3']","[0.7530798000000232, 1.3128920000000335]","[0.12003349999997681, 0.12883949999991273]",2,1,3,720,001,2024-11-20_17h24.27.720,Trial_mult,2023.2.1,59.96771338309516,2024-11-20 17h25.31.784983 -0500,
33,block1_trial33_attendleft_leadmasker.wav,0,32,32,32,271.51387149999994,,,,,,,271.5139446999999,271.5308083,2.016416700000036,277.36935629999994,277.36936819999994,277.38549709999995,277.38549709999995,279.07158849999996,"['2', '3', '1']","[0.9742626000000882, 1.5263231000000133]","[0.11074329999996735, 0.10480510000002141]",2,3,1,720,001,2024-11-20_17h24.27.720,Trial_mult,2023.2.1,59.96771338309516,2024-11-20 17h25.31.784983 -0500,
34,block1_trial34_attendright_leadtarget.wav,0,33,33,33,279.0867515,,,,,,,279.0868182999999,279.1038047999999,2.0165788000000475,284.9416782999999,284.9416887,284.95792989999995,284.95792989999995,287.32829789999994,"['2', '1', '3']","[1.0327654999999822, 1.5774393000000373]","[0.09712869999998475, 0.1432047999999213]",2,1,3,720,001,2024-11-20_17h24.27.720,Trial_mult,2023.2.1,59.96771338309516,2024-11-20 17h25.31.784983 -0500,
35,block1_trial35_attendright_leadmasker.wav,0,34,34,34,287.3435781999999,,,,,,,287.34365089999994,287.36057459999995,2.016352999999981,293.21559719999993,293.2156074999999,293.23211719999995,293.23211719999995,296.9194442999999,"['3', '1', '2']","[2.079493399999933, 3.4627441999999746]","[0.11192820000007941, 0.12119380000001456]",3,1,2,720,001,2024-11-20_17h24.27.720,Trial_mult,2023.2.1,59.96771338309516,2024-11-20 17h25.31.784983 -0500,
36,block1_trial36_attendleft_leadmasker.wav,0,35,35,35,296.93451089999996,,,,,,,296.934582,296.95131879999997,2.0166341999999986,302.7731176,302.7731275,302.78933359999996,302.78933359999996,305.3093331,"['3', '1', '2']","[0.9458735999999135, 2.3060133999999834]","[0.11953750000009222, 0.11920020000002296]",3,1,2,720,001,2024-11-20_17h24.27.720,Trial_mult,2023.2.1,59.96771338309516,2024-11-20 17h25.31.784983 -0500,
37,block1_trial37_attendleft_leadtarget.wav,0,36,36,36,305.32493109999996,,,,,,,305.3250020999999,305.34151309999993,2.0161386000000903,311.1790597999999,311.17906919999996,311.19581719999996,311.19581719999996,312.78231029999995,"['3', '2', '1']","[0.8606994000000441, 1.1954177000000072]","[0.11102849999997488, 0.11956989999998768]",3,2,1,720,001,2024-11-20_17h24.27.720,Trial_mult,2023.2.1,59.96771338309516,2024-11-20 17h25.31.784983 -0500,
38,block1_trial38_attendleft_leadmasker.wav,0,37,37,37,312.7970339,,,,,,,312.7971174999999,312.8138047,2.0161646000000246,318.6688514,318.6688618999999,318.685071,318.685071,320.5381771,"['3', '1', '2']","[0.9135930000001053, 1.5213829000000487]","[0.13585139999997864, 0.1210975999999846]",3,1,2,720,001,2024-11-20_17h24.27.720,Trial_mult,2023.2.1,59.96771338309516,2024-11-20 17h25.31.784983 -0500,
39,block1_trial39_attendleft_leadtarget.wav,0,38,38,38,320.5533367999999,,,,,,,320.5534134999999,320.5701459999999,2.0166021999999657,326.42506349999996,326.42507349999994,326.44137409999996,326.44137409999996,328.2614841999999,"['1', '3', '2']","[1.1501422000000048, 1.6150396000000455]","[0.11895319999996445, 0.1422488999999132]",1,3,2,720,001,2024-11-20_17h24.27.720,Trial_mult,2023.2.1,59.96771338309516,2024-11-20 17h25.31.784983 -0500,
40,block1_trial40_attendleft_leadmasker.wav,0,39,39,39,328.2763549,,,,,,,328.27643649999993,328.29327879999994,2.016434600000025,334.13124889999995,334.1312595999999,334.14760709999996,334.14760709999996,337.0353137999999,"['2', '1', '3']","[2.4909695999999713, 2.6911353000000418]","[0.11343620000002375, 0.1364006999999674]",2,1,3,720,001,2024-11-20_17h24.27.720,Trial_mult,2023.2.1,59.96771338309516,2024-11-20 17h25.31.784983 -0500,
41,block2_trial1_attendleft_leadmasker.wav,0,40,40,40,337.0500560999999,,,,,,,416.49701749999997,416.51412659999994,2.018315599999937,422.3523531999999,422.3523636,422.36853759999997,422.36853759999997,425.7892552999999,"['1', '3', '1']","[1.9437558999999283, 2.8302139999999554]","[0.09510480000005828, 0.10522520000006352]",1,3,1,720,001,2024-11-20_17h24.27.720,Trial_mult,2023.2.1,59.96771338309516,2024-11-20 17h25.31.784983 -0500,
42,block2_trial2_attendleft_leadtarget.wav,0,41,41,41,425.8044119,,,,,,,425.80448749999994,425.8215611999999,2.0168698999999606,431.6429933999999,431.6430041,431.65950829999997,431.65950829999997,432.61182529999996,"['2', '2', '1']","[0.5231815999999299, 0.7083966999999802]","[0.080278900000053, 0.07982930000002852]",2,2,1,720,001,2024-11-20_17h24.27.720,Trial_mult,2023.2.1,59.96771338309516,2024-11-20 17h25.31.784983 -0500,
43,block2_trial3_attendright_leadtarget.wav,0,42,42,42,432.6267366999999,,,,,,,432.62681439999994,432.6437341999999,2.016323199999988,438.48221320000005,438.482224,438.4985653,438.4985653,441.41823309999984,"['3', '1', '1']","[1.029097800000045, 1.5881163999999899]","[0.11091269999997166, 0.08766060000016296]",3,1,1,720,001,2024-11-20_17h24.27.720,Trial_mult,2023.2.1,59.96771338309516,2024-11-20 17h25.31.784983 -0500,
44,block2_trial4_attendright_leadtarget.wav,0,43,43,43,441.4342318999999,,,,,,,441.43430309999997,441.45062559999985,2.016428200000064,447.30523430000005,447.3052446999999,447.3218994,447.3218994,448.30724329999987,"['2', '3', '3']","[0.4938826000000063, 0.7728632000000744]","[0.10395360000006804, 0.09634529999993902]",2,3,3,720,001,2024-11-20_17h24.27.720,Trial_mult,2023.2.1,59.96771338309516,2024-11-20 17h25.31.784983 -0500,
45,block2_trial5_attendright_leadtarget.wav,0,44,44,44,448.3231233999999,,,,,,,448.32319870000003,448.33938309999996,2.0167473999999856,454.1777576999999,454.1777679999999,454.1943272,454.1943272,455.36306849999994,"['2', '3', '3']","[0.581565400000045, 0.9003536000000167]","[0.13522230000012314, 0.1120763999999781]",2,3,3,720,001,2024-11-20_17h24.27.720,Trial_mult,2023.2.1,59.96771338309516,2024-11-20 17h25.31.784983 -0500,
46,block2_trial6_attendright_leadmasker.wav,0,45,45,45,455.3783562,,,,,,,455.37843039999996,455.39522469999986,2.016208900000038,461.2337457,461.23375599999997,461.2501008999999,461.2501008999999,462.65262640000003,"['3', '2', '2']","[0.8775147999999717, 1.1966711999998552]","[0.11965029999987564, 0.095547900000156]",3,2,2,720,001,2024-11-20_17h24.27.720,Trial_mult,2023.2.1,59.96771338309516,2024-11-20 17h25.31.784983 -0500,
47,block2_trial7_attendright_leadtarget.wav,0,46,46,46,462.66733109999984,,,,,,,462.66740589999984,462.684202,2.0161556000000473,468.5230141999999,468.5230244999999,468.5396995,468.5396995,469.6748188999999,"['1', '1', '2']","[0.602773999999954, 0.8281446000000869]","[0.08858860000009372, 0.09470360000000255]",1,1,2,720,001,2024-11-20_17h24.27.720,Trial_mult,2023.2.1,59.96771338309516,2024-11-20 17h25.31.784983 -0500,
48,block2_trial8_attendright_leadmasker.wav,0,47,47,47,469.6900841999999,,,,,,,469.69016869999984,469.70690320000006,2.0165068000001156,475.52836319999994,475.5283739,475.5443578999999,475.5443578999999,477.9813697999999,"['3', '2', '3']","[1.9584371999999348, 2.254224900000054]","[0.1041746000000785, 0.11371299999996154]",3,2,3,720,001,2024-11-20_17h24.27.720,Trial_mult,2023.2.1,59.96771338309516,2024-11-20 17h25.31.784983 -0500,
49,block2_trial9_attendright_leadtarget.wav,0,48,48,48,477.9963013,,,,,,,477.99636959999987,478.01301109999997,2.016654000000017,483.8514151999999,483.85142529999996,483.8678954999999,483.8678954999999,485.2371417999999,"['3', '2', '2']","[0.9154364000000896, 1.1868984000000182]","[0.11995299999989584, 0.09588260000009541]",3,2,2,720,001,2024-11-20_17h24.27.720,Trial_mult,2023.2.1,59.96771338309516,2024-11-20 17h25.31.784983 -0500,
50,block2_trial10_attendleft_leadmasker.wav,0,49,49,49,485.25238019999995,,,,,,,485.2524540999999,485.26874050000004,2.016136399999823,491.14110300000004,491.14111319999995,491.15722719999997,491.15722719999997,492.3926264999999,"['2', '2', '2']","[0.6490429999998923, 0.9373957000000246]","[0.09682480000014948, 0.07281749999992826]",2,2,2,720,001,2024-11-20_17h24.27.720,Trial_mult,2023.2.1,59.96771338309516,2024-11-20 17h25.31.784983 -0500,
51,block2_trial11_attendleft_leadmasker.wav,0,50,50,50,492.4083614,,,,,,,492.4084357999999,492.4249226999999,2.016876400000001,498.2962664999999,498.2962767,498.3129711999999,498.3129711999999,499.2983521,"['1', '2', '3']","[0.6386171999999988, 0.8058399000001373]","[0.12047580000012204, 0.13676359999999477]",1,2,3,720,001,2024-11-20_17h24.27.720,Trial_mult,2023.2.1,59.96771338309516,2024-11-20 17h25.31.784983 -0500,
52,block2_trial12_attendleft_leadmasker.wav,0,51,51,51,499.3136667,,,,,,,499.3137412,499.3305334999999,2.016318599999977,505.1683187,505.16832869999996,505.18482389999997,505.18482389999997,506.70410449999997,"['3', '2', '3']","[0.7659989000001133, 1.166339900000139]","[0.1291527999999289, 0.13644829999998365]",3,2,3,720,001,2024-11-20_17h24.27.720,Trial_mult,2023.2.1,59.96771338309516,2024-11-20 17h25.31.784983 -0500,
53,block2_trial13_attendright_leadmasker.wav,0,52,52,52,506.7195450999999,,,,,,,506.71962159999987,506.73631999999986,2.0170089999999163,512.5913887999999,512.5913993999999,512.608302,512.608302,514.7773556999999,"['3', '1', '1']","[0.9989734000000681, 1.895483000000013]","[0.1514351999999235, 0.12000540000008186]",3,1,1,720,001,2024-11-20_17h24.27.720,Trial_mult,2023.2.1,59.96771338309516,2024-11-20 17h25.31.784983 -0500,
54,block2_trial14_attendright_leadmasker.wav,0,53,53,53,514.7930441,,,,,,,514.7931175999998,514.8091550999999,2.016567699999996,520.6641341999999,520.6641461999999,520.6807668999999,520.6807668999999,524.6358772,"['1', '2', '3']","[1.8544478999999683, 3.6303376000000753]","[0.1204522000000452, 0.08842959999992672]",1,2,3,720,001,2024-11-20_17h24.27.720,Trial_mult,2023.2.1,59.96771338309516,2024-11-20 17h25.31.784983 -0500,
55,block2_trial15_attendleft_leadmasker.wav,0,54,54,54,524.6508786999999,,,,,,,524.6509536,524.667534,2.016439300000002,530.5223938999999,530.5224044999999,530.5393215,530.5393215,532.608967,"['3', '2', '1']","[1.0116436000000704, 1.6044256000000132]","[0.11993589999997312, 0.09508419999997386]",3,2,1,720,001,2024-11-20_17h24.27.720,Trial_mult,2023.2.1,59.96771338309516,2024-11-20 17h25.31.784983 -0500,
56,block2_trial16_attendleft_leadtarget.wav,0,55,55,55,532.6237063,,,,,,,532.6237728,532.6401497999999,2.0156120999999985,538.4951772000001,538.4951878999999,538.5118179,538.5118179,540.2473701999999,"['2', '2', '3']","[0.4715493000001061, 0.9346929999999247]","[0.12898639999980333, 0.129032000000052]",2,2,3,720,001,2024-11-20_17h24.27.720,Trial_mult,2023.2.1,59.96771338309516,2024-11-20 17h25.31.784983 -0500,
57,block2_trial17_attendleft_leadmasker.wav,0,56,56,56,540.2630948,,,,,,,540.2631702,540.2797944,2.01651969999989,546.1184826999998,546.1184932999998,546.1350652,546.1350652,547.7035152,"['2', '1', '3']","[0.9128924999999981, 1.3354342000000088]","[0.1183270999999877, 0.13601249999987886]",2,1,3,720,001,2024-11-20_17h24.27.720,Trial_mult,2023.2.1,59.96771338309516,2024-11-20 17h25.31.784983 -0500,
58,block2_trial18_attendleft_leadtarget.wav,0,57,57,57,547.7187318999999,,,,,,,547.7188087999999,547.7353583999999,2.0165897999997924,553.5903732999999,553.5903834,553.6072742,553.6072742,554.5760214000001,"['1', '1', '2']","[0.4647416999998768, 0.7042497999998432]","[0.10424050000005991, 0.12043470000003254]",1,1,2,720,001,2024-11-20_17h24.27.720,Trial_mult,2023.2.1,59.96771338309516,2024-11-20 17h25.31.784983 -0500,
59,block2_trial19_attendleft_leadmasker.wav,0,58,58,58,554.5913669999999,,,,,,,554.5914408999998,554.6076829,2.0165325999998913,560.4631294,560.4631395,560.479592,560.479592,562.1819159,"['2', '2', '2']","[0.9911045999999715, 1.3601332000000639]","[0.1118839000000662, 0.09624349999990045]",2,2,2,720,001,2024-11-20_17h24.27.720,Trial_mult,2023.2.1,59.96771338309516,2024-11-20 17h25.31.784983 -0500,
60,block2_trial20_attendright_leadmasker.wav,0,59,59,59,562.1974764,,,,,,,562.1975503999998,562.2139607999999,2.0167079000000285,568.0357848,568.0357955999999,568.0520578,568.0520578,568.9370124999999,"['3', '3', '1']","[0.46671440000000075, 0.682996600000024]","[0.11997780000001512, 0.12747509999985596]",3,3,1,720,001,2024-11-20_17h24.27.720,Trial_mult,2023.2.1,59.96771338309516,2024-11-20 17h25.31.784983 -0500,
61,block2_trial21_attendright_leadtarget.wav,0,60,60,60,568.9528603,,,,,,,568.9529343,568.9696737,2.0169018999999935,574.8248496999998,574.8248600999999,574.8416572999998,574.8416572999998,577.5115456,"['1', '2', '3']","[0.5493549000000257, 0.7810097000001406]","[0.11135660000013559, 0.12902579999990849]",1,2,3,720,001,2024-11-20_17h24.27.720,Trial_mult,2023.2.1,59.96771338309516,2024-11-20 17h25.31.784983 -0500,
62,block2_trial22_attendleft_leadtarget.wav,0,61,61,61,577.5263782999999,,,,,,,577.5264506,577.5433883,2.0160889999999654,583.4154909999999,583.4155013999999,583.4317457999999,583.4317457999999,585.0004677999999,"['3', '2', '3']","[0.9187450999997964, 1.2481654999999137]","[0.10407120000013492, 0.15940060000002632]",3,2,3,720,001,2024-11-20_17h24.27.720,Trial_mult,2023.2.1,59.96771338309516,2024-11-20 17h25.31.784983 -0500,
63,block2_trial23_attendleft_leadtarget.wav,0,62,62,62,585.0158103,,,,,,,585.0158874,585.0321504,2.0169353999999657,590.8876724999999,590.887683,590.9047128999999,590.9047128999999,594.0410166,"['2', '2', '1']","[0.5179410000000644, 1.2708333000000493]","[0.11234609999996792, 0.10408559999996214]",2,2,1,720,001,2024-11-20_17h24.27.720,Trial_mult,2023.2.1,59.96771338309516,2024-11-20 17h25.31.784983 -0500,
64,block2_trial24_attendleft_leadtarget.wav,0,63,63,63,594.0563034,,,,,,,594.0563802,594.0727857999999,2.0163785999998254,599.8949108,599.8949213,599.9112887999999,599.9112887999999,601.0304061999999,"['2', '1', '2']","[0.5428810999999314, 0.8712121000000934]","[0.15221480000013798, 0.13658799999984694]",2,1,2,720,001,2024-11-20_17h24.27.720,Trial_mult,2023.2.1,59.96771338309516,2024-11-20 17h25.31.784983 -0500,
65,block2_trial25_attendright_leadmasker.wav,0,64,64,64,601.0454401999999,,,,,,,601.0455134,601.0619685999999,2.01610699999992,606.8999881999999,606.8999987999999,606.9166409999999,606.9166409999999,611.0365800999999,"['3', '3']","[0.9150474000000486, 1.2508264000000509]","[0.14501719999998386, 0.14314629999989847]",3,3,NA,720,001,2024-11-20_17h24.27.720,Trial_mult,2023.2.1,59.96771338309516,2024-11-20 17h25.31.784983 -0500,
66,block2_trial26_attendright_leadmasker.wav,0,65,65,65,611.0535649,,,,,,,611.0536418999999,611.0700266999999,2.023945299999923,616.8923013,616.8923122999998,616.9086102999999,616.9086102999999,618.9441940999999,"['3', '1', '2']","[1.1065060999999332, 1.697733900000003]","[0.1291358000000855, 0.1208592000000408]",3,1,2,720,001,2024-11-20_17h24.27.720,Trial_mult,2023.2.1,59.96771338309516,2024-11-20 17h25.31.784983 -0500,
67,block2_trial27_attendright_leadtarget.wav,0,66,66,66,618.9593692,,,,,,,618.9594364999999,618.9759711,2.016409099999919,624.8310556,624.8310665999999,624.8478114999999,624.8478114999999,625.7001638,"['2', '2', '3']","[0.39209200000004785, 0.5994828000000325]","[0.08659420000003593, 0.12830050000002302]",2,2,3,720,001,2024-11-20_17h24.27.720,Trial_mult,2023.2.1,59.96771338309516,2024-11-20 17h25.31.784983 -0500,
68,block2_trial28_attendleft_leadmasker.wav,0,67,67,67,625.7147517,,,,,,,625.7148197,625.7317534,2.0162548999999217,631.5705778999999,631.5705884999999,631.5870314,631.5870314,635.0567299999999,"['2', '1', '1']","[1.061000599999943, 2.9873293999999078]","[0.11841770000000906, 0.11210690000007162]",2,1,1,720,001,2024-11-20_17h24.27.720,Trial_mult,2023.2.1,59.96771338309516,2024-11-20 17h25.31.784983 -0500,
69,block2_trial29_attendright_leadtarget.wav,0,68,68,68,635.0726202,,,,,,,635.0726937999999,635.08957,2.0170768000000407,640.9440940999999,640.9441051999999,640.9604871,640.9604871,643.3810112,"['2', '2', '2']","[1.3744633999999678, 1.685953900000186]","[0.12876490000007834, 0.11978889999977582]",2,2,2,720,001,2024-11-20_17h24.27.720,Trial_mult,2023.2.1,59.96771338309516,2024-11-20 17h25.31.784983 -0500,
70,block2_trial30_attendleft_leadtarget.wav,0,69,69,69,643.3961186999999,,,,,,,643.3961948999998,643.4128941999999,2.0162324999998873,649.267954,649.2679645,649.2851620999999,649.2851620999999,650.6701216,"['2', '3', '1']","[0.8412094000000252, 1.1853350999999748]","[0.1139224999999442, 0.10409019999997327]",2,3,1,720,001,2024-11-20_17h24.27.720,Trial_mult,2023.2.1,59.96771338309516,2024-11-20 17h25.31.784983 -0500,
71,block2_trial31_attendright_leadmasker.wav,0,70,70,70,650.6848248,,,,,,,650.6848968999999,650.7017761999999,2.016032300000006,656.5571228999999,656.5571375999999,656.5737011,656.5737011,657.7925908999999,"['2', '1', '1']","[0.584925099999964, 0.9525863999999729]","[0.12894649999998364, 0.08819640000001527]",2,1,1,720,001,2024-11-20_17h24.27.720,Trial_mult,2023.2.1,59.96771338309516,2024-11-20 17h25.31.784983 -0500,
72,block2_trial32_attendleft_leadtarget.wav,0,71,71,71,657.8077181,,,,,,,657.807792,657.8242985999999,2.0160854000000654,663.6620654,663.6620753999999,663.6787816,663.6787816,665.0145838,"['3', '2', '2']","[0.768271200000072, 1.1039118999999573]","[0.12878139999997984, 0.1036724000000504]",3,2,2,720,001,2024-11-20_17h24.27.720,Trial_mult,2023.2.1,59.96771338309516,2024-11-20 17h25.31.784983 -0500,
73,block2_trial33_attendright_leadtarget.wav,0,72,72,72,665.0299306999999,,,,,,,665.0300020999999,665.0464386999998,2.0163720999998986,670.902082,670.9020921,670.9185484999999,670.9185484999999,672.9542894,"['3', '3', '1']","[0.8418130000000019, 1.3767722999998568]","[0.10264499999993859, 0.15896889999999075]",3,3,1,720,001,2024-11-20_17h24.27.720,Trial_mult,2023.2.1,59.96771338309516,2024-11-20 17h25.31.784983 -0500,
74,block2_trial34_attendright_leadtarget.wav,0,73,73,73,672.9699331999999,,,,,,,672.9700084,672.9862976000001,2.0164265000000796,678.8417435,678.8417539999999,678.8579775,678.8579775,680.0266304999999,"['1', '2', '3']","[0.7005002999999306, 0.861157300000059, 1.0367682999999488]","[0.13619040000003224, 0.2002405999999155, 0.12835689999997157]",1,2,3,720,001,2024-11-20_17h24.27.720,Trial_mult,2023.2.1,59.96771338309516,2024-11-20 17h25.31.784983 -0500,
75,block2_trial35_attendright_leadmasker.wav,0,74,74,74,680.0417245,,,,,,,680.0417902,680.0590885999999,2.016810200000009,685.8967392999999,685.8967489,685.9131792,685.9131792,686.7657071999998,"['3', '3', '1']","[0.47820119999983035, 0.6850306999999702]","[0.11928560000001198, 0.1294682999998713]",3,3,1,720,001,2024-11-20_17h24.27.720,Trial_mult,2023.2.1,59.96771338309516,2024-11-20 17h25.31.784983 -0500,
76,block2_trial36_attendleft_leadtarget.wav,0,75,75,75,686.7809048999999,,,,,,,686.7809776999999,686.7975932999999,2.0164033000000927,692.6360856999999,692.6360957999999,692.6525426,692.6525426,693.9211093999999,"['3', '2', '3']","[0.6592430000000604, 0.9776854000001549]","[0.15072009999994407, 0.16978640000002088]",3,2,3,720,001,2024-11-20_17h24.27.720,Trial_mult,2023.2.1,59.96771338309516,2024-11-20 17h25.31.784983 -0500,
77,block2_trial37_attendleft_leadmasker.wav,0,76,76,76,693.9364890999999,,,,,,,693.9365681999999,693.9530598999999,2.0166092000001754,699.7918607999999,699.791871,699.808259,699.808259,701.4939713,"['2', '3', '2']","[0.6939191000001301, 1.2231398000001263]","[0.11241279999990184, 0.12004189999993287]",2,3,2,720,001,2024-11-20_17h24.27.720,Trial_mult,2023.2.1,59.96771338309516,2024-11-20 17h25.31.784983 -0500,
78,block2_trial38_attendleft_leadtarget.wav,0,77,77,77,701.5089984999998,,,,,,,701.5090704,701.5261683999998,2.0165741999999227,707.3638487,707.3638585,707.3808751,707.3808751,710.1844734999999,"['2', '3', '1']","[0.6655980000000454, 2.122860499999888]","[0.12062569999989137, 0.15974950000008903]",2,3,1,720,001,2024-11-20_17h24.27.720,Trial_mult,2023.2.1,59.96771338309516,2024-11-20 17h25.31.784983 -0500,
79,block2_trial39_attendright_leadmasker.wav,0,78,78,78,710.1997998999999,,,,,,,710.1998766999999,710.2163663999999,2.0164554999998927,716.0379064999998,716.0379168999999,716.0544693999999,716.0544693999999,716.9563870999999,"['2', '2', '3']","[0.4398498999998992, 0.6730340999999953]","[0.12848910000002434, 0.1434102000000621]",2,2,3,720,001,2024-11-20_17h24.27.720,Trial_mult,2023.2.1,59.96771338309516,2024-11-20 17h25.31.784983 -0500,
80,block2_trial40_attendleft_leadmasker.wav,0,79,79,79,716.9715599,,,,,,,716.9716345,716.9882429999999,2.0164448999998967,722.8274146,722.8274247,722.8432136999999,722.8432136999999,724.8632337999999,"['2', '1', '1']","[1.3957342999999582, 1.9400860999999168]","[0.07200349999993705, 0.05714140000009138]",2,1,1,720,001,2024-11-20_17h24.27.720,Trial_mult,2023.2.1,59.96771338309516,2024-11-20 17h25.31.784983 -0500,
81,block3_trial1_attendright_leadmasker.wav,0,80,80,80,724.8780401,,,,,,,739.2562285999999,739.2733279999999,2.018706800000018,745.1119700999999,745.1119803,745.1285337999999,745.1285337999999,746.6637236,"['2', '3', '3']","[0.7820124000002124, 1.1266133999999965]","[0.11359879999986333, 0.1192246000000523]",2,3,3,720,001,2024-11-20_17h24.27.720,Trial_mult,2023.2.1,59.96771338309516,2024-11-20 17h25.31.784983 -0500,
82,block3_trial2_attendright_leadmasker.wav,0,81,81,81,746.6787604,,,,,,,746.6788346,746.6954797,2.016639499999883,752.5339834999999,752.5339943999999,752.5502445999999,752.5502445999999,753.6524722999999,"['3', '3', '3']","[0.6252013999999235, 0.8970870999999079]","[0.12666779999995015, 0.0872825000001285]",3,3,3,720,001,2024-11-20_17h24.27.720,Trial_mult,2023.2.1,59.96771338309516,2024-11-20 17h25.31.784983 -0500,
83,block3_trial3_attendright_leadmasker.wav,0,82,82,82,753.6680135,,,,,,,753.6680917,753.6846703,2.0165483999999196,759.5061453,759.5061551,759.5231636,759.5231636,762.9932330999999,"['3', '1', '3']","[0.38721480000003794, 2.428576699999894]","[0.1520648999999139, 0.14313450000008743]",3,1,3,720,001,2024-11-20_17h24.27.720,Trial_mult,2023.2.1,59.96771338309516,2024-11-20 17h25.31.784983 -0500,
84,block3_trial4_attendright_leadmasker.wav,0,83,83,83,763.008275,,,,,,,763.0083297,763.0256871999999,2.017078500000025,768.8973209,768.8973321,768.9140569999998,768.9140569999998,772.1671407,"['3', '1', '2']","[2.0049776000000747, 2.724968100000069]","[0.14463899999987007, 0.12802689999989525]",3,1,2,720,001,2024-11-20_17h24.27.720,Trial_mult,2023.2.1,59.96771338309516,2024-11-20 17h25.31.784983 -0500,
85,block3_trial5_attendright_leadmasker.wav,0,84,84,84,772.1827376999998,,,,,,,772.1828112,772.1995728,2.0165345000000343,778.0383066,778.0383169999999,778.0546135999999,778.0546135999999,779.6227573999998,"['2', '3', '3']","[0.5356549000000541, 1.3129507999999532]","[0.11349669999981415, 0.09630749999996624]",2,3,3,720,001,2024-11-20_17h24.27.720,Trial_mult,2023.2.1,59.96771338309516,2024-11-20 17h25.31.784983 -0500,
86,block3_trial6_attendright_leadtarget.wav,0,85,85,85,779.6385867999999,,,,,,,779.6386652,779.6549498,2.0174196000000393,785.5100182999998,785.5100288999998,785.5266441999999,785.5266441999999,787.2468547,"['2', '2', '1']","[0.7768785000000662, 1.2810091999999713]","[0.08765870000001996, 0.1435371000000032]",2,2,1,720,001,2024-11-20_17h24.27.720,Trial_mult,2023.2.1,59.96771338309516,2024-11-20 17h25.31.784983 -0500,
87,block3_trial7_attendleft_leadmasker.wav,0,86,86,86,787.2610599999999,,,,,,,787.2611183999999,787.2783863999999,2.016090899999881,793.1333401,793.1333503,793.1502133,793.1502133,794.3850166999999,"['3', '3', '2']","[0.6562506000000212, 0.9928257999999914]","[0.1282086999999592, 0.1590856000000258]",3,3,2,720,001,2024-11-20_17h24.27.720,Trial_mult,2023.2.1,59.96771338309516,2024-11-20 17h25.31.784983 -0500,
88,block3_trial8_attendright_leadmasker.wav,0,87,87,87,794.400827,,,,,,,794.4009007999999,794.4172411999999,2.0166947000000164,800.288784,800.2887946,800.3054699,800.3054699,802.625169,"['3', '1', '1']","[1.0695522000000892, 1.6371028000000933]","[0.17615239999986443, 0.14554249999991953]",3,1,1,720,001,2024-11-20_17h24.27.720,Trial_mult,2023.2.1,59.96771338309516,2024-11-20 17h25.31.784983 -0500,
89,block3_trial9_attendright_leadtarget.wav,0,88,88,88,802.6401831,,,,,,,802.640258,802.6573052,2.0161223000000064,808.4952018999999,808.4952126,808.5117515999999,808.5117515999999,810.5314322999999,"['1', '1', '2']","[0.5997842000001583, 1.5028076999999485]","[0.15227029999982733, 0.15189360000022134]",1,1,2,720,001,2024-11-20_17h24.27.720,Trial_mult,2023.2.1,59.96771338309516,2024-11-20 17h25.31.784983 -0500,
90,block3_trial10_attendleft_leadtarget.wav,0,89,89,89,810.5467385999999,,,,,,,810.5468127999999,810.5632371,2.0162683000000925,816.4019870999999,816.4019975,816.4183711,816.4183711,818.9048279,"['1', '3', '3']","[1.2772267000000284, 2.045455499999889]","[0.15147969999998168, 0.1511363000001893]",1,3,3,720,001,2024-11-20_17h24.27.720,Trial_mult,2023.2.1,59.96771338309516,2024-11-20 17h25.31.784983 -0500,
91,block3_trial11_attendright_leadtarget.wav,0,90,90,90,818.9200156,,,,,,,818.9200873999999,818.9370054,2.0162806999999248,824.8083332999998,824.8083441999999,824.8250265999999,824.8250265999999,826.6613515,"['2', '3', '1']","[0.5259863000001133, 1.206073300000071]","[0.12016099999982544, 0.16707949999999983]",2,3,1,720,001,2024-11-20_17h24.27.720,Trial_mult,2023.2.1,59.96771338309516,2024-11-20 17h25.31.784983 -0500,
92,block3_trial12_attendleft_leadmasker.wav,0,91,91,91,826.676623,,,,,,,826.6766967,826.6929982,2.0162606999999753,832.5648464,832.5648567,832.581329,832.581329,834.5838837999999,"['2', '2', '3']","[1.3379081999999016, 1.682386999999835]","[0.09629139999992731, 0.12636010000005626]",2,2,3,720,001,2024-11-20_17h24.27.720,Trial_mult,2023.2.1,59.96771338309516,2024-11-20 17h25.31.784983 -0500,
93,block3_trial13_attendleft_leadtarget.wav,0,92,92,92,834.5992017,,,,,,,834.5992729999999,834.6157075999998,2.01688409999997,840.4548558999999,840.4548667999999,840.4714461,840.4714461,843.9918571,"['1', '2', '2']","[0.8393676000000596, 2.8389477999999144]","[0.1673991999998634, 0.08914660000004915]",1,2,2,720,001,2024-11-20_17h24.27.720,Trial_mult,2023.2.1,59.96771338309516,2024-11-20 17h25.31.784983 -0500,
94,block3_trial14_attendleft_leadtarget.wav,0,93,93,93,844.0069178,,,,,,,844.006998,844.023568,2.0165826999998444,849.8788157,849.8788257999998,849.8955646999999,849.8955646999999,852.1478596999999,"['3', '1', '3']","[1.1352176000000327, 1.9907795999999962]","[0.19975530000010622, 0.16115100000001803]",3,1,3,720,001,2024-11-20_17h24.27.720,Trial_mult,2023.2.1,59.96771338309516,2024-11-20 17h25.31.784983 -0500,
95,block3_trial15_attendleft_leadtarget.wav,0,94,94,94,852.1632166999999,,,,,,,852.1632813999998,852.1801010999999,2.0166735000000244,858.0019008999999,858.0019108,858.0181329999999,858.0181329999999,860.8716780999999,"['3', '3', '1']","[0.7565137000001414, 1.3722964999999476]","[0.1204742999998416, 0.12833090000003722]",3,3,1,720,001,2024-11-20_17h24.27.720,Trial_mult,2023.2.1,59.96771338309516,2024-11-20 17h25.31.784983 -0500,
96,block3_trial16_attendright_leadtarget.wav,0,95,95,95,860.8873531999999,,,,,,,860.8874339999999,860.9038224,2.016623299999992,866.7416265,866.7416371,866.7588084,866.7588084,869.2615425,"['1', '1', '1']","[1.695483200000126, 2.087687900000219]","[0.12970879999988938, 0.10460289999991801]",1,1,1,720,001,2024-11-20_17h24.27.720,Trial_mult,2023.2.1,59.96771338309516,2024-11-20 17h25.31.784983 -0500,
97,block3_trial17_attendleft_leadtarget.wav,0,96,96,96,869.2774882,,,,,,,869.2775627,869.2936484999999,2.0169439999999668,875.1490324999999,875.1490428999999,875.1650103999999,875.1650103999999,879.2683891999999,"['3', '2']","[2.3856414000001678, 2.7057746000000407]","[0.16804769999998825, 0.14477529999999206]",3,2,NA,720,001,2024-11-20_17h24.27.720,Trial_mult,2023.2.1,59.96771338309516,2024-11-20 17h25.31.784983 -0500,
98,block3_trial18_attendleft_leadmasker.wav,0,97,97,97,879.285616,,,,,,,879.2856908999998,879.3016667999999,2.0241218999999546,885.1741126000001,885.1741234,885.1908004000001,885.1908004000001,887.3598596999999,"['2', '1', '2']","[1.0571990000000824, 1.7603113000000121]","[0.14232459999993807, 0.1589267000001655]",2,1,2,720,001,2024-11-20_17h24.27.720,Trial_mult,2023.2.1,59.96771338309516,2024-11-20 17h25.31.784983 -0500,
99,block3_trial19_attendright_leadmasker.wav,0,98,98,98,887.3748382999999,,,,,,,887.3749099999999,887.3917336999999,2.01617310000006,893.2467379999999,893.2467504,893.2629645999999,893.2629645999999,896.3340617999999,"['1', '2', '3']","[1.432256499999994, 2.5435198999998647]","[0.15978419999987636, 0.12996480000015254]",1,2,3,720,001,2024-11-20_17h24.27.720,Trial_mult,2023.2.1,59.96771338309516,2024-11-20 17h25.31.784983 -0500,
100,block3_trial20_attendright_leadmasker.wav,0,99,99,99,896.3489136,,,,,,,896.3489804,896.3658139999999,2.015839799999867,902.2209586,902.2209684000001,902.2375458999999,902.2375458999999,905.3075565,"['3', '3', '1']","[1.785693899999842, 2.7206002999998873]","[0.1273782000000665, 0.16098970000007284]",3,3,1,720,001,2024-11-20_17h24.27.720,Trial_mult,2023.2.1,59.96771338309516,2024-11-20 17h25.31.784983 -0500,
101,block3_trial21_attendright_leadtarget.wav,0,100,100,100,905.3229977,,,,,,,905.3230719,905.3397808999999,2.0168017000000873,911.1784729,911.1784833,911.1948392,911.1948392,913.5976465999998,"['2', '2', '1']","[1.1001072000001386, 1.7092423000001418]","[0.12814720000005764, 0.07891339999991942]",2,2,1,720,001,2024-11-20_17h24.27.720,Trial_mult,2023.2.1,59.96771338309516,2024-11-20 17h25.31.784983 -0500,
102,block3_trial22_attendright_leadmasker.wav,0,101,101,101,913.6129800999998,,,,,,,913.6130537,913.6296071999999,2.0161659000000327,919.4843047,919.4843156000001,919.5006789,919.5006789,923.6040537999999,['2'],[2.482779900000196],[0.11285049999992225],2,NA,NA,720,001,2024-11-20_17h24.27.720,Trial_mult,2023.2.1,59.96771338309516,2024-11-20 17h25.31.784983 -0500,
103,block3_trial23_attendright_leadtarget.wav,0,102,102,102,923.6210465,,,,,,,923.6211196,923.6377380999999,2.023587599999928,929.4762001,929.4762102999999,929.4929851,929.4929851,932.4797445,"['3', '1', '1']","[0.8495961000000989, 1.5377224999999726]","[0.12827689999994618, 0.13580530000012914]",3,1,1,720,001,2024-11-20_17h24.27.720,Trial_mult,2023.2.1,59.96771338309516,2024-11-20 17h25.31.784983 -0500,
104,block3_trial24_attendleft_leadmasker.wav,0,103,103,103,932.4950135999999,,,,,,,932.4950860999999,932.5110257,2.0160966000000826,938.3499866999999,938.3499972999999,938.3667253999998,938.3667253999998,939.4017169,"['1', '3', '1']","[0.551809300000059, 0.791877999999997]","[0.12917489999995269, 0.14399790000015855]",1,3,1,720,001,2024-11-20_17h24.27.720,Trial_mult,2023.2.1,59.96771338309516,2024-11-20 17h25.31.784983 -0500,
105,block3_trial25_attendright_leadmasker.wav,0,104,104,104,939.4172287,,,,,,,939.417305,939.433725,2.016624600000114,945.2719905999999,945.2720006999999,945.2884223,945.2884223,946.7577422999999,"['1', '1', '1']","[0.8299025999999685, 1.1177445000000716]","[0.1207053000000542, 0.17672219999985828]",1,1,1,720,001,2024-11-20_17h24.27.720,Trial_mult,2023.2.1,59.96771338309516,2024-11-20 17h25.31.784983 -0500,
106,block3_trial26_attendright_leadtarget.wav,0,105,105,105,946.7729813,,,,,,,946.7731470999998,946.7891068,2.0161434999999983,952.6448434,952.6448537999999,952.6614363999998,952.6614363999998,955.8982451,"['1', '2', '1']","[1.4023918999998841, 2.9849374000000353]","[0.1437104999999974, 0.11202800000000934]",1,2,1,720,001,2024-11-20_17h24.27.720,Trial_mult,2023.2.1,59.96771338309516,2024-11-20 17h25.31.784983 -0500,
107,block3_trial27_attendleft_leadtarget.wav,0,106,106,106,955.9132610999999,,,,,,,955.9133361999999,955.9297633,2.016118000000006,961.8018297,961.8018398,961.8179282,961.8179282,963.4878628999999,"['1', '2', '2']","[0.9499934000000394, 1.3411169000000882]","[0.1277288999999655, 0.0881937999999991]",1,2,2,720,001,2024-11-20_17h24.27.720,Trial_mult,2023.2.1,59.96771338309516,2024-11-20 17h25.31.784983 -0500,
108,block3_trial28_attendleft_leadmasker.wav,0,107,107,107,963.5031892999999,,,,,,,963.5032623999999,963.519578,2.016407900000104,969.3579263999999,969.3579372,969.3740498999999,969.3740498999999,972.0609082,"['1', '3', '1']","[1.5606407000000218, 2.041458299999931]","[0.1208560000000034, 0.1513810999999805]",1,3,1,720,001,2024-11-20_17h24.27.720,Trial_mult,2023.2.1,59.96771338309516,2024-11-20 17h25.31.784983 -0500,
109,block3_trial29_attendleft_leadtarget.wav,0,108,108,108,972.0758347,,,,,,,972.0758858999999,972.0931018999999,2.016702099999975,977.964842,977.9648527999999,977.9813009999999,977.9813009999999,979.9171123999998,"['2', '3', '1']","[0.8897202000000561, 1.5697795000000951]","[0.13588860000004388, 0.12830409999992298]",2,3,1,720,001,2024-11-20_17h24.27.720,Trial_mult,2023.2.1,59.96771338309516,2024-11-20 17h25.31.784983 -0500,
110,block3_trial30_attendright_leadtarget.wav,0,109,109,109,979.9330108999999,,,,,,,979.9330785999999,979.9493311999998,2.0164457000000766,985.8048579,985.8048683999999,985.8209722999999,985.8209722999999,987.5402644,"['2', '3', '1']","[0.7619614999998703, 1.3064127999998618]","[0.1526741000000129, 0.1836746999999832]",2,3,1,720,001,2024-11-20_17h24.27.720,Trial_mult,2023.2.1,59.96771338309516,2024-11-20 17h25.31.784983 -0500,
111,block3_trial31_attendleft_leadmasker.wav,0,110,110,110,987.5556659999999,,,,,,,987.5557381999998,987.571914,2.0166831000001366,993.4272465,993.4272565999999,993.443508,993.443508,996.1642103,"['3', '2', '3']","[1.0436295999998038, 1.6108308999998826]","[0.1348881999999776, 0.12122539999995752]",3,2,3,720,001,2024-11-20_17h24.27.720,Trial_mult,2023.2.1,59.96771338309516,2024-11-20 17h25.31.784983 -0500,
112,block3_trial32_attendleft_leadtarget.wav,0,111,111,111,996.1788487,,,,,,,996.1789175,996.1957331999998,2.015778100000034,1002.0670999999999,1002.0671097000001,1002.0835132999999,1002.0835132999999,1004.5873931,"['2', '1', '2']","[0.9793125000001055, 2.051567299999988]","[0.13682799999992312, 0.11907680000012988]",2,1,2,720,001,2024-11-20_17h24.27.720,Trial_mult,2023.2.1,59.96771338309516,2024-11-20 17h25.31.784983 -0500,
113,block3_trial33_attendleft_leadtarget.wav,0,112,112,112,1004.6028055999999,,,,,,,1004.6029179999999,1004.6191233999999,2.016222799999923,1010.4572265,1010.4572367,1010.4742307999999,1010.4742307999999,1011.6099241999999,"['3', '3', '1']","[0.62003279999999, 0.8519689999998263]","[0.11191789999998036, 0.12048640000011801]",3,3,1,720,001,2024-11-20_17h24.27.720,Trial_mult,2023.2.1,59.96771338309516,2024-11-20 17h25.31.784983 -0500,
114,block3_trial34_attendright_leadtarget.wav,0,113,113,113,1011.6247204,,,,,,,1011.6248786999998,1011.6414378999999,2.0162467999998626,1017.4804553,1017.4804651000001,1017.4966951999999,1017.4966951999999,1019.1990356999999,"['3', '1', '3']","[0.9433348000000024, 1.4072210999997878]","[0.1261493999998038, 0.13468470000020716]",3,1,3,720,001,2024-11-20_17h24.27.720,Trial_mult,2023.2.1,59.96771338309516,2024-11-20 17h25.31.784983 -0500,
115,block3_trial35_attendleft_leadmasker.wav,0,114,114,114,1019.213887,,,,,,,1019.2139584,1019.2311533999999,2.0165841999998975,1025.0859710999998,1025.0859814,1025.1021683,1025.1021683,1026.8047504,"['2', '1', '3']","[1.0642123000002357, 1.3845202000002246]","[0.12852059999977428, 0.1282538000000386]",2,1,3,720,001,2024-11-20_17h24.27.720,Trial_mult,2023.2.1,59.96771338309516,2024-11-20 17h25.31.784983 -0500,
116,block3_trial36_attendleft_leadmasker.wav,0,115,115,115,1026.8200775,,,,,,,1026.8201447000001,1026.836734,2.0168175999999676,1032.6588548999998,1032.6588652,1032.6749819000001,1032.6749819000001,1034.1779198999998,"['3', '3', '3']","[1.0199319999996987, 1.2750433999999586]","[0.11130720000028305, 0.1283991000000242]",3,3,3,720,001,2024-11-20_17h24.27.720,Trial_mult,2023.2.1,59.96771338309516,2024-11-20 17h25.31.784983 -0500,
117,block3_trial37_attendright_leadtarget.wav,0,116,116,116,1034.1930490999998,,,,,,,1034.193127,1034.2095054000001,2.0165042999999514,1040.0488326,1040.0488428999997,1040.0644810999997,1040.0644810999997,1042.3669786,"['2', '2', '2']","[0.894677899999806, 1.4536699999998746]","[0.10420639999983905, 0.10421240000005128]",2,2,2,720,001,2024-11-20_17h24.27.720,Trial_mult,2023.2.1,59.96771338309516,2024-11-20 17h25.31.784983 -0500,
118,block3_trial38_attendleft_leadtarget.wav,0,117,117,117,1042.3824955999999,,,,,,,1042.3825649,1042.3997356,2.0167553000001135,1048.2711678,1048.2711773,1048.2882421999998,1048.2882421999998,1050.9580709000002,"['1', '3', '2']","[1.3818959000000177, 2.3192910000002485]","[0.16051170000037018, 0.1120213999997759]",1,3,2,720,001,2024-11-20_17h24.27.720,Trial_mult,2023.2.1,59.96771338309516,2024-11-20 17h25.31.784983 -0500,
119,block3_trial39_attendleft_leadmasker.wav,0,118,118,118,1050.9730654,,,,,,,1050.97314,1050.9899701999998,2.016010000000051,1056.8617091,1056.8617187999998,1056.8779825000001,1056.8779825000001,1060.9640645,"['1', '3']","[1.0095851000000948, 1.3200716000001194]","[0.14332489999969766, 0.13700470000003406]",1,3,NA,720,001,2024-11-20_17h24.27.720,Trial_mult,2023.2.1,59.96771338309516,2024-11-20 17h25.31.784983 -0500,
120,block3_trial40_attendleft_leadmasker.wav,0,119,119,119,1060.9809971999998,,,,,,,1060.9810707000001,1060.9978121999998,2.023280800000066,1066.8361644000001,1066.8361746,1066.8523985000002,1066.8523985000002,1067.8877462,"['1', '2', '2']","[0.6441617999998925, 0.8421816999998555]","[0.11857380000037665, 0.10341840000000957]",1,2,2,720,001,2024-11-20_17h24.27.720,Trial_mult,2023.2.1,59.96771338309516,2024-11-20 17h25.31.784983 -0500,
121,block4_trial1_attendright_leadmasker.wav,0,120,120,120,1067.9031464,,,,,,,1074.9923134,1075.0086916999999,2.0183124000000134,1080.8643057,1080.8643164999999,1080.8809867999998,1080.8809867999998,1082.0990637999998,"['1', '1', '1']","[0.6625066000001425, 0.9413288999999168]","[0.11890729999959149, 0.11212569999997868]",1,1,1,720,001,2024-11-20_17h24.27.720,Trial_mult,2023.2.1,59.96771338309516,2024-11-20 17h25.31.784983 -0500,
122,block4_trial2_attendleft_leadmasker.wav,0,121,121,121,1082.1144085,,,,,,,1082.1144749,1082.1317378999997,2.017226900000196,1087.9697397999998,1087.9697498,1087.9863197,1087.9863197,1089.5553507,"['1', '3', '2']","[1.0287951999998768, 1.3401589000000058]","[0.13581750000003012, 0.1517226999999366]",1,3,2,720,001,2024-11-20_17h24.27.720,Trial_mult,2023.2.1,59.96771338309516,2024-11-20 17h25.31.784983 -0500,
123,block4_trial3_attendright_leadtarget.wav,0,122,122,122,1089.5709527,,,,,,,1089.5710263,1089.5874684999999,2.016596400000026,1095.4420464,1095.4420568,1095.4588122,1095.4588122,1098.0955251999999,"['1', '3', '1']","[0.9394142999999531, 1.4199061999997866]","[0.1450101000000359, 0.14328560000012658]",1,3,1,720,001,2024-11-20_17h24.27.720,Trial_mult,2023.2.1,59.96771338309516,2024-11-20 17h25.31.784983 -0500,
124,block4_trial4_attendright_leadmasker.wav,0,123,123,123,1098.1109551999998,,,,,,,1098.1110294,1098.1277126,2.0163568000000396,1103.9992662,1103.9992763999999,1104.0165263,1104.0165263,1105.8848772000001,"['2', '3', '1']","[0.7264347000000271, 1.4222638000001098]","[0.12826970000014626, 0.1360829999998714]",2,3,1,720,001,2024-11-20_17h24.27.720,Trial_mult,2023.2.1,59.96771338309516,2024-11-20 17h25.31.784983 -0500,
125,block4_trial5_attendright_leadmasker.wav,0,124,124,124,1105.9006051000001,,,,,,,1105.9006816,1105.9172926,2.0166794000001573,1111.7557094999997,1111.7557195,1111.7723032,1111.7723032,1113.4078647000001,"['3', '3', '2']","[0.9939689999996517, 1.3787207000000308]","[0.09570020000001023, 0.15973269999994955]",3,3,2,720,001,2024-11-20_17h24.27.720,Trial_mult,2023.2.1,59.96771338309516,2024-11-20 17h25.31.784983 -0500,
126,block4_trial6_attendleft_leadmasker.wav,0,125,125,125,1113.4231141999999,,,,,,,1113.4231876999997,1113.4400418,2.0167979999998806,1119.2784047,1119.2784155999998,1119.2949248999998,1119.2949248999998,1120.5136517,"['1', '2', '3']","[0.848232299999836, 1.0639230999995561]","[0.15123300000004747, 0.144159700000273]",1,2,3,720,001,2024-11-20_17h24.27.720,Trial_mult,2023.2.1,59.96771338309516,2024-11-20 17h25.31.784983 -0500,
127,block4_trial7_attendleft_leadtarget.wav,0,126,126,126,1120.5291244999999,,,,,,,1120.5291991,1120.545709,2.016729499999883,1126.3839229,1126.383934,1126.4007083000001,1126.4007083000001,1127.9526569,"['3', '2', '2']","[1.0855353000001742, 1.3820802000000185]","[0.11266500000010637, 0.12856650000003356]",3,2,2,720,001,2024-11-20_17h24.27.720,Trial_mult,2023.2.1,59.96771338309516,2024-11-20 17h25.31.784983 -0500,
128,block4_trial8_attendright_leadtarget.wav,0,127,127,127,1127.9681501999999,,,,,,,1127.9682269,1127.9851027,2.0169574000001376,1133.8569911,1133.8570025,1133.8739209,1133.8739209,1136.6765464,"['3', '2', '3']","[0.6610122000001866, 2.3642746000000443]","[0.14382750000004307, 0.11279930000000604]",3,2,3,720,001,2024-11-20_17h24.27.720,Trial_mult,2023.2.1,59.96771338309516,2024-11-20 17h25.31.784983 -0500,
129,block4_trial9_attendright_leadmasker.wav,0,128,128,128,1136.6921800999999,,,,,,,1136.6922530000002,1136.7083532000001,2.016222599999992,1142.5298149,1142.5298256,1142.5464502999998,1142.5464502999998,1146.3511519999997,"['2', '2', '3']","[1.5565245000002506, 2.9398363000000245]","[0.10303029999977298, 0.12008560000003854]",2,2,3,720,001,2024-11-20_17h24.27.720,Trial_mult,2023.2.1,59.96771338309516,2024-11-20 17h25.31.784983 -0500,
130,block4_trial10_attendright_leadtarget.wav,0,129,129,129,1146.3663375,,,,,,,1146.3664135,1146.3827292,2.016281399999798,1152.2376905,1152.2377007,1152.2542727999999,1152.2542727999999,1154.2743286,"['3', '2', '3']","[1.1609238000000914, 1.5917410000001837]","[0.15949129999989964, 0.12839919999987615]",3,2,3,720,001,2024-11-20_17h24.27.720,Trial_mult,2023.2.1,59.96771338309516,2024-11-20 17h25.31.784983 -0500,
131,block4_trial11_attendright_leadmasker.wav,0,130,130,130,1154.2892059,,,,,,,1154.2893026000002,1154.3059171,2.0158323000000564,1160.1437145,1160.143725,1160.1608022,1160.1608022,1162.0635412000001,"['3', '1', '2']","[1.030307200000152, 1.5660487000000103]","[0.1351528000000144, 0.13510300000007192]",3,1,2,720,001,2024-11-20_17h24.27.720,Trial_mult,2023.2.1,59.96771338309516,2024-11-20 17h25.31.784983 -0500,
132,block4_trial12_attendleft_leadmasker.wav,0,131,131,131,1162.0785623000002,,,,,,,1162.0786322999998,1162.0953562,2.0168280000000323,1167.9338054,1167.9338162,1167.9501799,1167.9501799,1170.669982,"['1', '3', '1']","[0.8247363999998925, 1.60827879999988]","[0.15189190000000963, 0.15247260000023743]",1,3,1,720,001,2024-11-20_17h24.27.720,Trial_mult,2023.2.1,59.96771338309516,2024-11-20 17h25.31.784983 -0500,
133,block4_trial13_attendleft_leadmasker.wav,0,132,132,132,1170.6857670999998,,,,,,,1170.6858432999998,1170.7025614,2.0171503999999914,1176.5237711,1176.5237813999997,1176.5404746,1176.5404746,1180.6769473999998,"['3', '3']","[1.1533973000000515, 1.4116352000000916]","[0.12003659999982119, 0.15071079999961512]",3,3,NA,720,001,2024-11-20_17h24.27.720,Trial_mult,2023.2.1,59.96771338309516,2024-11-20 17h25.31.784983 -0500,
134,block4_trial14_attendleft_leadmasker.wav,0,133,133,133,1180.6939674,,,,,,,1180.6940414,1180.7100887000001,2.024042799999961,1186.5656383,1186.5656482999998,1186.5820681999999,1186.5820681999999,1188.101518,"['3', '3', '2']","[0.9777033999998821, 1.2240292999999838]","[0.10339590000012322, 0.16028449999976147]",3,3,2,720,001,2024-11-20_17h24.27.720,Trial_mult,2023.2.1,59.96771338309516,2024-11-20 17h25.31.784983 -0500,
135,block4_trial15_attendleft_leadtarget.wav,0,134,134,134,1188.1163739999997,,,,,,,1188.1164479999998,1188.13285,2.016168099999959,1193.9880352999999,1193.9880463999998,1194.0045233,1194.0045233,1197.7754089999999,"['1', '3', '3']","[0.9142237999999452, 2.3141835999999785]","[0.17792000000008557, 0.13618079999969268]",1,3,3,720,001,2024-11-20_17h24.27.720,Trial_mult,2023.2.1,59.96771338309516,2024-11-20 17h25.31.784983 -0500,
136,block4_trial16_attendright_leadtarget.wav,0,135,135,135,1197.7905157999999,,,,,,,1197.7905910999998,1197.8077208,2.016876899999943,1203.6459384,1203.6459488,1203.6619726999998,1203.6619726999998,1206.7662372999998,"['3', '3', '3']","[1.0566877999999633, 2.7768427000000884]","[0.1678556000001663, 0.1117325999998684]",3,3,3,720,001,2024-11-20_17h24.27.720,Trial_mult,2023.2.1,59.96771338309516,2024-11-20 17h25.31.784983 -0500,
137,block4_trial17_attendleft_leadmasker.wav,0,136,136,136,1206.781039,,,,,,,1206.7811057,1206.7980256,2.0160026999999445,1212.652759,1212.6527692,1212.6700603,1212.6700603,1214.589069,"['3', '2', '3']","[0.9118005000000267, 1.4811623999999028]","[0.1286019999997734, 0.15166670000007798]",3,2,3,720,001,2024-11-20_17h24.27.720,Trial_mult,2023.2.1,59.96771338309516,2024-11-20 17h25.31.784983 -0500,
138,block4_trial18_attendright_leadmasker.wav,0,137,137,137,1214.6044686,,,,,,,1214.6045516999998,1214.6210265999998,2.0166286999999556,1220.4591888999998,1220.4591995,1220.4759107,1220.4759107,1222.4787422999998,"['3', '3', '2']","[1.410099799999898, 1.762633199999982]","[0.12046860000009474, 0.17631679999976768]",3,3,2,720,001,2024-11-20_17h24.27.720,Trial_mult,2023.2.1,59.96771338309516,2024-11-20 17h25.31.784983 -0500,
139,block4_trial19_attendright_leadtarget.wav,0,138,138,138,1222.4941281000001,,,,,,,1222.4942078,1222.5109582,2.016687099999899,1228.3490812999999,1228.3490919,1228.3657365999998,1228.3657365999998,1229.3008614999999,"['3', '3', '3']","[0.41617089999999735, 0.6889366000000336]","[0.12898360000008324, 0.12014229999977033]",3,3,3,720,001,2024-11-20_17h24.27.720,Trial_mult,2023.2.1,59.96771338309516,2024-11-20 17h25.31.784983 -0500,
140,block4_trial20_attendleft_leadtarget.wav,0,139,139,139,1229.3163773,,,,,,,1229.3164505,1229.3330978999998,2.0165032999998402,1235.1881087000002,1235.1881199,1235.2048909,1235.2048909,1237.1571282,"['2', '3', '1']","[0.9935344000000441, 1.6186430000002474]","[0.16034720000016023, 0.1437999999998283]",2,3,1,720,001,2024-11-20_17h24.27.720,Trial_mult,2023.2.1,59.96771338309516,2024-11-20 17h25.31.784983 -0500,
141,block4_trial21_attendleft_leadtarget.wav,0,140,140,140,1237.1721508,,,,,,,1237.1722249999998,1237.1890257,2.016769199999999,1243.0274528999998,1243.0274648,1243.0439741,1243.0439741,1245.1133378999998,"['2', '3', '2']","[0.9065341000000444, 1.8104010000001836]","[0.13713110000026063, 0.10467060000019046]",2,3,2,720,001,2024-11-20_17h24.27.720,Trial_mult,2023.2.1,59.96771338309516,2024-11-20 17h25.31.784983 -0500,
142,block4_trial22_attendright_leadtarget.wav,0,141,141,141,1245.1284821999998,,,,,,,1245.1285489000002,1245.1452863,2.0164830999999594,1250.9668037000001,1250.9668130999999,1250.9834520999998,1250.9834520999998,1251.9025040000001,"['1', '2', '3']","[0.5913113000001431, 0.7673436999998557]","[0.13721639999994295, 0.12894980000010037]",1,2,3,720,001,2024-11-20_17h24.27.720,Trial_mult,2023.2.1,59.96771338309516,2024-11-20 17h25.31.784983 -0500,
143,block4_trial23_attendleft_leadmasker.wav,0,142,142,142,1251.9176930999997,,,,,,,1251.9177669,1251.9342124,2.016084100000171,1257.8060117999999,1257.8060225999998,1257.8226525,1257.8226525,1259.4084094,"['2', '3', '1']","[0.711567599999853, 1.247847499999807]","[0.11306400000012218, 0.11216500000000451]",2,3,1,720,001,2024-11-20_17h24.27.720,Trial_mult,2023.2.1,59.96771338309516,2024-11-20 17h25.31.784983 -0500,
144,block4_trial24_attendright_leadmasker.wav,0,143,143,143,1259.4238299999997,,,,,,,1259.4239075,1259.4401487,2.016504000000168,1265.2789702,1265.2789809,1265.2954485999999,1265.2954485999999,1266.6142314999997,"['3', '2', '2']","[0.7272138999996969, 1.0958252999998876]","[0.12030559999993784, 0.09524550000014642]",3,2,2,720,001,2024-11-20_17h24.27.720,Trial_mult,2023.2.1,59.96771338309516,2024-11-20 17h25.31.784983 -0500,
145,block4_trial25_attendleft_leadtarget.wav,0,144,144,144,1266.6291250999998,,,,,,,1266.6291984999998,1266.6464354999998,2.016100800000004,1272.4676641,1272.4676746,1272.4847261,1272.4847261,1274.8875742,"['1', '3', '2']","[1.3467239999999947, 2.057207500000004]","[0.11908589999984542, 0.14510939999991024]",1,3,2,720,001,2024-11-20_17h24.27.720,Trial_mult,2023.2.1,59.96771338309516,2024-11-20 17h25.31.784983 -0500,
146,block4_trial26_attendright_leadtarget.wav,0,145,145,145,1274.9023763999999,,,,,,,1274.9024506,1274.919472,2.0160855000001447,1280.7917392999998,1280.7917499,1280.8077122,1280.8077122,1282.7103481,"['1', '3', '3']","[1.1668761999999333, 1.6871151999998801]","[0.15171950000012657, 0.09546930000033171]",1,3,3,720,001,2024-11-20_17h24.27.720,Trial_mult,2023.2.1,59.96771338309516,2024-11-20 17h25.31.784983 -0500,
147,block4_trial27_attendright_leadmasker.wav,0,146,146,146,1282.7256023,,,,,,,1282.7256785999998,1282.7425852000001,2.0163668000000143,1288.5802183,1288.5802288999998,1288.5966832999998,1288.5966832999998,1289.7821549999999,"['2', '2', '1']","[0.6667125999997552, 0.8985797999998795]","[0.10282330000018192, 0.12700230000018564]",2,2,1,720,001,2024-11-20_17h24.27.720,Trial_mult,2023.2.1,59.96771338309516,2024-11-20 17h25.31.784983 -0500,
148,block4_trial28_attendleft_leadtarget.wav,0,147,147,147,1289.7976401,,,,,,,1289.7977038,1289.8143019999998,2.0166251999999076,1295.6528545,1295.6528654999997,1295.6696762000001,1295.6696762000001,1297.2381445,"['2', '3', '1']","[0.55387729999984, 1.1366933999997855]","[0.12816990000010264, 0.11176629999999932]",2,3,1,720,001,2024-11-20_17h24.27.720,Trial_mult,2023.2.1,59.96771338309516,2024-11-20 17h25.31.784983 -0500,
149,block4_trial29_attendright_leadmasker.wav,0,148,148,148,1297.2536185999998,,,,,,,1297.2536872,1297.2703520999999,2.0165674000002127,1303.1261009,1303.1261113,1303.1428277,1303.1428277,1304.7776267,"['3', '1', '1']","[1.0876718999998047, 1.383491199999753]","[0.1275804000001699, 0.12871150000000853]",3,1,1,720,001,2024-11-20_17h24.27.720,Trial_mult,2023.2.1,59.96771338309516,2024-11-20 17h25.31.784983 -0500,
150,block4_trial30_attendright_leadtarget.wav,0,149,149,149,1304.7929276,,,,,,,1304.7929908,1304.8096448000001,2.017226499999879,1310.6482904999998,1310.6483018,1310.6649133,1310.6649133,1311.8665717,"['3', '3', '2']","[0.7269952999999987, 0.9728562999998758]","[0.1188891000001604, 0.13687639999989187]",3,3,2,720,001,2024-11-20_17h24.27.720,Trial_mult,2023.2.1,59.96771338309516,2024-11-20 17h25.31.784983 -0500,
151,block4_trial31_attendleft_leadtarget.wav,0,150,150,150,1311.8819967,,,,,,,1311.8820626000002,1311.8989416,2.0167796000000635,1317.754163,1317.7541735999998,1317.7706288999998,1317.7706288999998,1318.9563122,"['1', '1', '1']","[0.6123976999997467, 0.8918823999997585]","[0.11882100000002538, 0.12108149999994566]",1,1,1,720,001,2024-11-20_17h24.27.720,Trial_mult,2023.2.1,59.96771338309516,2024-11-20 17h25.31.784983 -0500,
152,block4_trial32_attendright_leadtarget.wav,0,151,151,151,1318.9717342999998,,,,,,,1318.9718082,1318.9882701000001,2.016214199999922,1324.8101142,1324.8101244,1324.8263966999998,1324.8263966999998,1326.3955584,"['2', '3', '3']","[0.7883094999997411, 1.14786869999989]","[0.14364440000008472, 0.09707990000015343]",2,3,3,720,001,2024-11-20_17h24.27.720,Trial_mult,2023.2.1,59.96771338309516,2024-11-20 17h25.31.784983 -0500,
153,block4_trial33_attendright_leadmasker.wav,0,152,152,152,1326.4108794999997,,,,,,,1326.4109525,1326.4273414999998,2.016085299999986,1332.2822575,1332.2822683999998,1332.2985198000001,1332.2985198000001,1333.8678819000002,"['3', '2', '2']","[0.8445019999999204, 1.244705800000247]","[0.13560880000022735, 0.11980589999984659]",3,2,2,720,001,2024-11-20_17h24.27.720,Trial_mult,2023.2.1,59.96771338309516,2024-11-20 17h25.31.784983 -0500,
154,block4_trial34_attendleft_leadtarget.wav,0,153,153,153,1333.8837039999999,,,,,,,1333.8837773999999,1333.9000350000001,2.0166057999999794,1339.7713709,1339.7713811999997,1339.7882602,1339.7882602,1342.107582,"['3', '2', '3']","[0.850014199999805, 1.3080147999999099]","[0.14451880000024175, 0.1100615000000289]",3,2,3,720,001,2024-11-20_17h24.27.720,Trial_mult,2023.2.1,59.96771338309516,2024-11-20 17h25.31.784983 -0500,
155,block4_trial35_attendleft_leadmasker.wav,0,154,154,154,1342.1233509999997,,,,,,,1342.1234236,1342.1399152999998,2.016791599999806,1347.9777997,1347.9778103999997,1347.9948312000001,1347.9948312000001,1349.6309376999998,"['2', '1', '3']","[0.8110279000002265, 1.2758162000000084]","[0.1522077999998146, 0.143288499999926]",2,1,3,720,001,2024-11-20_17h24.27.720,Trial_mult,2023.2.1,59.96771338309516,2024-11-20 17h25.31.784983 -0500,
156,block4_trial36_attendright_leadtarget.wav,0,155,155,155,1349.6455714999997,,,,,,,1349.6456210000001,1349.6628117999999,2.0160020000000713,1355.5009406,1355.5009526999997,1355.5175921,1355.5175921,1357.9542812,"['3', '2', '2']","[0.5134226000000126, 1.6085352000000057]","[0.16007390000004307, 0.1364226000000599]",3,2,2,720,001,2024-11-20_17h24.27.720,Trial_mult,2023.2.1,59.96771338309516,2024-11-20 17h25.31.784983 -0500,
157,block4_trial37_attendleft_leadtarget.wav,0,156,156,156,1357.9695191,,,,,,,1357.9695926,1357.9858402,2.016357199999902,1363.8243159999997,1363.8243263,1363.8416268,1363.8416268,1365.5603102999999,"['1', '2', '3']","[0.9572026999999252, 1.4208762000002935]","[0.183892300000025, 0.12138099999992846]",1,2,3,720,001,2024-11-20_17h24.27.720,Trial_mult,2023.2.1,59.96771338309516,2024-11-20 17h25.31.784983 -0500,
158,block4_trial38_attendleft_leadmasker.wav,0,157,157,157,1365.5756523,,,,,,,1365.5757253000002,1365.5923351000001,2.0165571,1371.4300973999998,1371.4301086,1371.4468051999997,1371.4468051999997,1373.1330911999999,"['3', '3', '2']","[0.9763797999999042, 1.3431392000002234]","[0.15893310000001293, 0.16828769999983706]",3,3,2,720,001,2024-11-20_17h24.27.720,Trial_mult,2023.2.1,59.96771338309516,2024-11-20 17h25.31.784983 -0500,
159,block4_trial39_attendleft_leadmasker.wav,0,158,158,158,1373.1483689000002,,,,,,,1373.1484428999997,1373.1648003,2.016219500000034,1379.0031760000002,1379.0031871,1379.0197408,1379.0197408,1382.4236741999998,"['3', '1', '3']","[2.3067605000001095, 2.875112899999749]","[0.14327909999974509, 0.136116800000309]",3,1,3,720,001,2024-11-20_17h24.27.720,Trial_mult,2023.2.1,59.96771338309516,2024-11-20 17h25.31.784983 -0500,
160,block4_trial40_attendleft_leadtarget.wav,0,159,159,159,1382.4389259999998,,,,,,,1382.4389984999998,1382.4554411999998,2.01616510000008,1388.2942226999999,1388.2942334999998,1388.3112081999998,1388.3112081999998,1389.5795735000002,"['2', '1', '3']","[0.67204589999983, 0.9765481999997974]","[0.16092750000007072, 0.15855450000026394]",2,1,3,720,001,2024-11-20_17h24.27.720,Trial_mult,2023.2.1,59.96771338309516,2024-11-20 17h25.31.784983 -0500,
161,block5_trial1_attendleft_leadtarget.wav,0,160,160,160,1389.5946085,,,,,,,1403.8392906,1403.8557462999997,2.0184726999998475,1409.6942561,1409.6942669999999,1409.7110364,1409.7110364,1411.5304121,"['3', '2', '2']","[1.080772799999977, 1.4637868999998318]","[0.12601819999963482, 0.0874681000000237]",3,2,2,720,001,2024-11-20_17h24.27.720,Trial_mult,2023.2.1,59.96771338309516,2024-11-20 17h25.31.784983 -0500,
162,block5_trial2_attendleft_leadmasker.wav,0,161,161,161,1411.5455917,,,,,,,1411.5456693,1411.5620745,2.0162379999999303,1417.4172226,1417.4172328999998,1417.4339260000002,1417.4339260000002,1419.0528252,"['3', '2', '3']","[0.8367718999998033, 1.2998176000000967]","[0.13550600000007762, 0.1360792999998921]",3,2,3,720,001,2024-11-20_17h24.27.720,Trial_mult,2023.2.1,59.96771338309516,2024-11-20 17h25.31.784983 -0500,
163,block5_trial3_attendleft_leadtarget.wav,0,162,162,162,1419.0684514999998,,,,,,,1419.0685245,1419.0849042,2.0166991000000962,1424.9397433,1424.9397531,1424.9563193,1424.9563193,1425.875075,"['3', '3', '3']","[0.4255987000001369, 0.6745488000001387]","[0.12004170000000158, 0.11106130000007397]",3,3,3,720,001,2024-11-20_17h24.27.720,Trial_mult,2023.2.1,59.96771338309516,2024-11-20 17h25.31.784983 -0500,
164,block5_trial4_attendleft_leadtarget.wav,0,163,163,163,1425.8904988,,,,,,,1425.8905724,1425.9073299000001,2.016448000000082,1431.7623985,1431.762409,1431.7788999999998,1431.7788999999998,1433.5980556999998,"['2', '1', '3']","[0.6596079000000827, 1.108404800000244]","[0.11211079999975482, 0.16904169999997976]",2,1,3,720,001,2024-11-20_17h24.27.720,Trial_mult,2023.2.1,59.96771338309516,2024-11-20 17h25.31.784983 -0500,
165,block5_trial5_attendleft_leadmasker.wav,0,164,164,164,1433.6132229,,,,,,,1433.6132899,1433.6301571,2.016650600000048,1439.4686582,1439.4686683999998,1439.4852110000002,1439.4852110000002,1441.8381442,"['2', '1', '2']","[0.7938608999997996, 1.8328295999999682]","[0.11140819999991436, 0.23278780000009647]",2,1,2,720,001,2024-11-20_17h24.27.720,Trial_mult,2023.2.1,59.96771338309516,2024-11-20 17h25.31.784983 -0500,
166,block5_trial6_attendleft_leadtarget.wav,0,165,165,165,1441.8532504999998,,,,,,,1441.8533158999999,1441.8697656999998,2.0161430000000564,1447.7417747,1447.7417956999998,1447.7582017999998,1447.7582017999998,1449.5108550999998,"['3', '1', '1']","[1.0402970999998615, 1.4726228999998057]","[0.17610629999990124, 0.1268767999999909]",3,1,1,720,001,2024-11-20_17h24.27.720,Trial_mult,2023.2.1,59.96771338309516,2024-11-20 17h25.31.784983 -0500,
167,block5_trial7_attendright_leadmasker.wav,0,166,166,166,1449.5260112,,,,,,,1449.5260868999999,1449.5429433,2.0164294999999584,1455.3981125999999,1455.3981230999998,1455.414483,1455.414483,1457.7336139,"['2', '3', '2']","[1.2232819999999265, 1.8804435000001831]","[0.12100330000021131, 0.1290075999995679]",2,3,2,720,001,2024-11-20_17h24.27.720,Trial_mult,2023.2.1,59.96771338309516,2024-11-20 17h25.31.784983 -0500,
168,block5_trial8_attendright_leadtarget.wav,0,167,167,167,1457.7489673999999,,,,,,,1457.7490191000002,1457.7655335999998,2.0172165999999834,1463.6214394999997,1463.6214523999997,1463.6376917999996,1463.6376917999996,1465.2737014,"['2', '3', '3']","[0.8730358000002525, 1.272538700000041]","[0.13556729999982053, 0.1365352000002531]",2,3,3,720,001,2024-11-20_17h24.27.720,Trial_mult,2023.2.1,59.96771338309516,2024-11-20 17h25.31.784983 -0500,
169,block5_trial9_attendleft_leadmasker.wav,0,168,168,168,1465.2884273999998,,,,,,,1465.2884774999998,1465.3051596999999,2.016379599999709,1471.1439771,1471.1439885,1471.1603683999997,1471.1603683999997,1472.81304,"['3', '2', '2']","[1.078632899999775, 1.4070921999996244]","[0.1438922000002094, 0.11080670000001192]",3,2,2,720,001,2024-11-20_17h24.27.720,Trial_mult,2023.2.1,59.96771338309516,2024-11-20 17h25.31.784983 -0500,
170,block5_trial10_attendleft_leadtarget.wav,0,169,169,169,1472.8283032999998,,,,,,,1472.8283772999998,1472.8444944999997,2.0164832000000388,1478.7169718999999,1478.7169821999996,1478.7335200999996,1478.7335200999996,1480.6187234,"['3', '1', '2']","[0.8814678999997341, 1.456510900000012]","[0.16853549999996176, 0.17766149999988556]",3,1,2,720,001,2024-11-20_17h24.27.720,Trial_mult,2023.2.1,59.96771338309516,2024-11-20 17h25.31.784983 -0500,
171,block5_trial11_attendleft_leadtarget.wav,0,170,170,170,1480.6346971999997,,,,,,,1480.6347708999997,1480.6511083999999,2.0169451000001573,1486.5063920999996,1486.5064017,1486.522962,1486.522962,1487.991623,"['2', '1', '1']","[0.4507333000001381, 1.0920460000002095]","[0.12072929999976623, 0.19174199999997654]",2,1,1,720,001,2024-11-20_17h24.27.720,Trial_mult,2023.2.1,59.96771338309516,2024-11-20 17h25.31.784983 -0500,
172,block5_trial12_attendleft_leadmasker.wav,0,171,171,171,1488.0071982,,,,,,,1488.0072827999998,1488.0235567999998,2.016206499999953,1493.8448105999996,1493.8448200999997,1493.8613602,1493.8613602,1495.2814128999999,"['2', '3', '3']","[0.8406216999997014, 1.2003552999999556]","[0.11271190000024944, 0.09630769999967015]",2,3,3,720,001,2024-11-20_17h24.27.720,Trial_mult,2023.2.1,59.96771338309516,2024-11-20 17h25.31.784983 -0500,
173,block5_trial13_attendleft_leadmasker.wav,0,172,172,172,1495.2963829,,,,,,,1495.29646,1495.3127786,2.0156357000000753,1501.1341453999999,1501.1341558999998,1501.1508093999996,1501.1508093999996,1503.7375819,"['3', '1', '2']","[1.4389200999999048, 2.3910628999997243]","[0.14476460000014413, 0.13622590000022683]",3,1,2,720,001,2024-11-20_17h24.27.720,Trial_mult,2023.2.1,59.96771338309516,2024-11-20 17h25.31.784983 -0500,
174,block5_trial14_attendleft_leadmasker.wav,0,173,173,173,1503.7532578,,,,,,,1503.7533331,1503.7693575999997,2.016565299999911,1509.6420344999997,1509.642046,1509.6577806,1509.6577806,1512.6777751,"['3', '2', '3']","[1.364716000000044, 1.9240193000000545]","[0.10564380000005258, 0.1291841000002023]",3,2,3,720,001,2024-11-20_17h24.27.720,Trial_mult,2023.2.1,59.96771338309516,2024-11-20 17h25.31.784983 -0500,
175,block5_trial15_attendright_leadmasker.wav,0,174,174,174,1512.6937706999997,,,,,,,1512.6938556,1512.709769,2.017113000000336,1518.5482966,1518.5483067999999,1518.564895,1518.564895,1519.9340795999997,"['3', '2', '3']","[0.8187308000001394, 1.1300728000001072]","[0.11919970000008107, 0.16154039999992165]",3,2,3,720,001,2024-11-20_17h24.27.720,Trial_mult,2023.2.1,59.96771338309516,2024-11-20 17h25.31.784983 -0500,
176,block5_trial16_attendright_leadtarget.wav,0,175,175,175,1519.9489998,,,,,,,1519.9490726,1519.9659837,2.0161729000001287,1525.8043316999997,1525.8043426,1525.8208445,1525.8208445,1527.5570116,"['2', '3', '2']","[1.097820700000284, 1.465577100000246]","[0.13519419999965976, 0.12886200000002646]",2,3,2,720,001,2024-11-20_17h24.27.720,Trial_mult,2023.2.1,59.96771338309516,2024-11-20 17h25.31.784983 -0500,
177,block5_trial17_attendleft_leadmasker.wav,0,176,176,176,1527.571966,,,,,,,1527.5720394999998,1527.5888025999998,2.0161895999999615,1533.4105974,1533.4106106999998,1533.4267482,1533.4267482,1536.5641028999999,"['2', '1', '2']","[2.019312599999921, 2.796108500000173]","[0.13694440000017494, 0.09489570000005187]",2,1,2,720,001,2024-11-20_17h24.27.720,Trial_mult,2023.2.1,59.96771338309516,2024-11-20 17h25.31.784983 -0500,
178,block5_trial18_attendright_leadmasker.wav,0,177,177,177,1536.5798164999997,,,,,,,1536.5798926999996,1536.5964073,2.016138299999966,1542.4173704999998,1542.4173811,1542.4340018999997,1542.4340018999997,1543.4026202999999,"['1', '2', '3']","[0.5969755999999506, 0.7005411000000095, 0.8207833000001301]","[0.17503450000003795, 0.16009729999996125, 0.13539059999993697]",1,2,3,720,001,2024-11-20_17h24.27.720,Trial_mult,2023.2.1,59.96771338309516,2024-11-20 17h25.31.784983 -0500,
179,block5_trial19_attendright_leadtarget.wav,0,178,178,178,1543.4180721999996,,,,,,,1543.4181405,1543.434828,2.016917899999953,1549.2897146,1549.2897260999998,1549.3061488999997,1549.3061488999997,1550.4246706,"['1', '2', '3']","[0.6449088999997912, 0.8129090999996151, 0.9656578999997691]","[0.15245800000002419, 0.18372960000033345, 0.1420908000000054]",1,2,3,720,001,2024-11-20_17h24.27.720,Trial_mult,2023.2.1,59.96771338309516,2024-11-20 17h25.31.784983 -0500,
180,block5_trial20_attendright_leadtarget.wav,0,179,179,179,1550.4402262999997,,,,,,,1550.4402788999996,1550.4570049,2.016675600000326,1556.31234,1556.3123498999998,1556.3290118,1556.3290118,1557.3642061,"['1', '3', '3']","[0.6619092999999339, 0.8550506999999925]","[0.1028360000000248, 0.09375379999983124]",1,3,3,720,001,2024-11-20_17h24.27.720,Trial_mult,2023.2.1,59.96771338309516,2024-11-20 17h25.31.784983 -0500,
181,block5_trial21_attendleft_leadtarget.wav,0,180,180,180,1557.3794163999996,,,,,,,1557.3794819999998,1557.3961697999998,2.016187500000342,1563.2347289999998,1563.2347393999999,1563.2511694999998,1563.2511694999998,1564.0023632999996,"['3', '3', '2']","[0.42854369999986375, 0.5954412999999477]","[0.078301300000021, 0.09559900000022026]",3,3,2,720,001,2024-11-20_17h24.27.720,Trial_mult,2023.2.1,59.96771338309516,2024-11-20 17h25.31.784983 -0500,
182,block5_trial22_attendright_leadtarget.wav,0,181,181,181,1564.018228,,,,,,,1564.0183312,1564.0347308,2.016659900000377,1569.8732388999997,1569.8732483,1569.8900887,1569.8900887,1570.857963,"['2', '3', '3']","[0.5315104000001156, 0.8046211000000767]","[0.12835309999991296, 0.06290869999975257]",2,3,3,720,001,2024-11-20_17h24.27.720,Trial_mult,2023.2.1,59.96771338309516,2024-11-20 17h25.31.784983 -0500,
183,block5_trial23_attendleft_leadmasker.wav,0,182,182,182,1570.8731945,,,,,,,1570.8732682,1570.8900823999998,2.01664030000029,1576.7452819,1576.7452924,1576.7616536,1576.7616536,1577.8470239999997,"['2', '3', '3']","[0.660245600000053, 0.8937664000000041]","[0.13667530000020633, 0.08715250000022934]",2,3,3,720,001,2024-11-20_17h24.27.720,Trial_mult,2023.2.1,59.96771338309516,2024-11-20 17h25.31.784983 -0500,
184,block5_trial24_attendleft_leadtarget.wav,0,183,183,183,1577.8623284999999,,,,,,,1577.8623957,1577.8787539,2.01638980000007,1583.7004434,1583.7004536,1583.7174545999997,1583.7174545999997,1585.3197658999998,"['2', '3', '3']","[0.7605097999999089, 1.3524889000000258]","[0.13014299999986179, 0.145017999999709]",2,3,3,720,001,2024-11-20_17h24.27.720,Trial_mult,2023.2.1,59.96771338309516,2024-11-20 17h25.31.784983 -0500,
185,block5_trial25_attendright_leadmasker.wav,0,184,184,184,1585.3349500999998,,,,,,,1585.3350207999997,1585.3517112,2.016590400000041,1591.1906157999997,1591.1906261,1591.2071843999997,1591.2071843999997,1592.2423236999998,"['3', '3', '3']","[0.6788068000000749, 0.8556809000001522]","[0.12005869999984498, 0.11312879999968573]",3,3,3,720,001,2024-11-20_17h24.27.720,Trial_mult,2023.2.1,59.96771338309516,2024-11-20 17h25.31.784983 -0500,
186,block5_trial26_attendleft_leadmasker.wav,0,185,185,185,1592.2574164999996,,,,,,,1592.2574836999997,1592.2738823,2.0163221000002522,1598.1118044,1598.1118151,1598.1288114,1598.1288114,1599.3144138999996,"['2', '2', '1']","[0.717105900000206, 1.06240200000002, 1.028860800000075]","[0.13608979999980875, 0.05614380000042729, 0.15327890000025945]",2,2,1,720,001,2024-11-20_17h24.27.720,Trial_mult,2023.2.1,59.96771338309516,2024-11-20 17h25.31.784983 -0500,
187,block5_trial27_attendright_leadmasker.wav,0,186,186,186,1599.3295361,,,,,,,1599.3296092,1599.3460271999998,2.0166011000001163,1605.2180957,1605.2181053999998,1605.2340006,1605.2340006,1606.9375587,"['2', '3', '1']","[0.773305100000016, 1.1889618000000155]","[0.15111899999965317, 0.11897399999998015]",2,3,1,720,001,2024-11-20_17h24.27.720,Trial_mult,2023.2.1,59.96771338309516,2024-11-20 17h25.31.784983 -0500,
188,block5_trial28_attendright_leadmasker.wav,0,187,187,187,1606.9524545,,,,,,,1606.952527,1606.9688185999998,2.0163025000001653,1612.8242952,1612.8243054999998,1612.8406320999998,1612.8406320999998,1615.0603085999996,"['3', '1', '2']","[1.4699868000002425, 2.0303146000001107]","[0.11157009999988077, 0.10359790000029534]",3,1,2,720,001,2024-11-20_17h24.27.720,Trial_mult,2023.2.1,59.96771338309516,2024-11-20 17h25.31.784983 -0500,
189,block5_trial29_attendright_leadmasker.wav,0,188,188,188,1615.0754868,,,,,,,1615.0755633999997,1615.0921503999998,2.016777899999852,1620.9472462999997,1620.9472566999998,1620.9636517999998,1620.9636517999998,1624.5175259999996,"['3', '3', '3']","[0.8753948999997192, 3.379387499999666]","[0.10335660000009739, 0.0953775000002679]",3,3,3,720,001,2024-11-20_17h24.27.720,Trial_mult,2023.2.1,59.96771338309516,2024-11-20 17h25.31.784983 -0500,
190,block5_trial30_attendright_leadmasker.wav,0,189,189,189,1624.5328488,,,,,,,1624.5329214999997,1624.549931,2.0167168000002675,1630.3877791999998,1630.3877890999997,1630.4042252999998,1630.4042252999998,1632.3405871999998,"['2', '3', '2']","[1.2653634000002967, 1.6335274000002755]","[0.12893829999984519, 0.1050545999996757]",2,3,2,720,001,2024-11-20_17h24.27.720,Trial_mult,2023.2.1,59.96771338309516,2024-11-20 17h25.31.784983 -0500,
191,block5_trial31_attendleft_leadtarget.wav,0,190,190,190,1632.3558794,,,,,,,1632.3559473,1632.3726953,2.016571599999679,1638.2278631999998,1638.2278751,1638.2450777999998,1638.2450777999998,1639.3132022999998,"['2', '2', '3']","[0.6725734999999986, 0.8489595999999437]","[0.08876899999995658, 0.14512210000020787]",2,2,3,720,001,2024-11-20_17h24.27.720,Trial_mult,2023.2.1,59.96771338309516,2024-11-20 17h25.31.784983 -0500,
192,block5_trial32_attendright_leadtarget.wav,0,191,191,191,1639.3282931999997,,,,,,,1639.3283738999999,1639.3453689999997,2.016172000000097,1645.2001794999996,1645.2001894,1645.2161965999999,1645.2161965999999,1647.2365096999997,"['3', '2', '3']","[1.301543699999911, 1.7262172999999166]","[0.16858120000006238, 0.15296149999994668]",3,2,3,720,001,2024-11-20_17h24.27.720,Trial_mult,2023.2.1,59.96771338309516,2024-11-20 17h25.31.784983 -0500,
193,block5_trial33_attendright_leadmasker.wav,0,192,192,192,1647.2512127,,,,,,,1647.2512858999999,1647.2681817999996,2.0162191000003986,1653.1401744,1653.1401848,1653.1565655999998,1653.1565655999998,1656.3770049,"['1', '3', '2']","[1.5770322000003034, 2.0015972999999576]","[0.145162899999832, 0.14354180000009364]",1,3,2,720,001,2024-11-20_17h24.27.720,Trial_mult,2023.2.1,59.96771338309516,2024-11-20 17h25.31.784983 -0500,
194,block5_trial34_attendright_leadtarget.wav,0,193,193,193,1656.3919340999996,,,,,,,1656.3920123999997,1656.4084549,2.016199400000005,1662.2300716999998,1662.2300827,1662.2469047999998,1662.2469047999998,1663.7321840999998,"['2', '2', '3']","[1.0311870000000454, 1.231500800000049]","[0.09676519999993616, 0.15952689999994618]",2,2,3,720,001,2024-11-20_17h24.27.720,Trial_mult,2023.2.1,59.96771338309516,2024-11-20 17h25.31.784983 -0500,
195,block5_trial35_attendleft_leadtarget.wav,0,194,194,194,1663.7477817,,,,,,,1663.7478505999998,1663.7645238,2.017023800000061,1669.6199465999998,1669.6199564999997,1669.6363573999997,1669.6363573999997,1671.3719821,"['2', '1', '1']","[1.0013693999999305, 1.4500033999997868]","[0.10514280000006693, 0.14498760000014954]",2,1,1,720,001,2024-11-20_17h24.27.720,Trial_mult,2023.2.1,59.96771338309516,2024-11-20 17h25.31.784983 -0500,
196,block5_trial36_attendleft_leadmasker.wav,0,195,195,195,1671.3874360999998,,,,,,,1671.3875205,1671.4037736999999,2.0168290999999954,1677.2418976,1677.2419069999996,1677.2585166,1677.2585166,1678.9115613999998,"['1', '2', '2']","[1.179207099999985, 1.4286144999996395]","[0.1447835999997551, 0.12737330000027214]",1,2,2,720,001,2024-11-20_17h24.27.720,Trial_mult,2023.2.1,59.96771338309516,2024-11-20 17h25.31.784983 -0500,
197,block5_trial37_attendright_leadtarget.wav,0,196,196,196,1678.9270705,,,,,,,1678.9271466,1678.9437884999998,2.016477599999689,1684.7984121,1684.7984220999997,1684.8151736,1684.8151736,1687.0681049,"['3', '2', '2']","[1.6146914000000834, 2.022521500000039]","[0.15291019999995115, 0.10491580000007161]",3,2,2,720,001,2024-11-20_17h24.27.720,Trial_mult,2023.2.1,59.96771338309516,2024-11-20 17h25.31.784983 -0500,
198,block5_trial38_attendright_leadtarget.wav,0,197,197,197,1687.0836096999997,,,,,,,1687.0836894,1687.1000473,2.016378899999836,1692.9382044999998,1692.9382145999998,1692.9549783999996,1692.9549783999996,1694.0403898999998,"['1', '2', '3']","[0.5727099000000635, 0.7473605000000134, 0.899522899999738]","[0.15002169999979742, 0.20069879999982732, 0.17660670000032042]",1,2,3,720,001,2024-11-20_17h24.27.720,Trial_mult,2023.2.1,59.96771338309516,2024-11-20 17h25.31.784983 -0500,
199,block5_trial39_attendright_leadmasker.wav,0,198,198,198,1694.0558269999997,,,,,,,1694.0559027,1694.0720803999998,2.016800500000045,1699.8937975999997,1699.8938077999996,1699.9104737999996,1699.9104737999996,1701.5295542,"['2', '2', '3']","[1.1760119000000486, 1.4000546000002032]","[0.1043907000002946, 0.1671532999998817]",2,2,3,720,001,2024-11-20_17h24.27.720,Trial_mult,2023.2.1,59.96771338309516,2024-11-20 17h25.31.784983 -0500,
200,block5_trial40_attendright_leadtarget.wav,0,199,199,199,1701.5451460999998,,,,,,,1701.5452181,1701.561893,2.0166497000000163,1707.4164782999997,1707.4164880999997,1707.4329423999998,1707.4329423999998,1709.4024394999997,"['3', '1', '2']","[1.2130965000001197, 1.750084600000264]","[0.1674908999998479, 0.1506257999999434]",3,1,2,720,001,2024-11-20_17h24.27.720,Trial_mult,2023.2.1,59.96771338309516,2024-11-20 17h25.31.784983 -0500,
201,block6_trial1_attendright_leadmasker.wav,0,200,200,200,1709.4182163,,,,,,,1725.8310357999999,1725.8478114,2.017942800000128,1731.7024615,1731.7024723,1731.7190910999998,1731.7190910999998,1733.5389410999996,"['2', '2', '3']","[1.39097430000038, 1.59163800000033]","[0.08813889999964886, 0.11894519999987097]",2,2,3,720,001,2024-11-20_17h24.27.720,Trial_mult,2023.2.1,59.96771338309516,2024-11-20 17h25.31.784983 -0500,
202,block6_trial2_attendright_leadmasker.wav,0,201,201,201,1733.5541257999998,,,,,,,1733.5542348,1733.5706485,2.0166992999998,1739.4260176999996,1739.4260292,1739.4428230999997,1739.4428230999997,1740.6943885,"['1', '1', '2']","[0.7404618000000482, 0.9550014999999803]","[0.08645870000009381, 0.08946319999995467]",1,1,2,720,001,2024-11-20_17h24.27.720,Trial_mult,2023.2.1,59.96771338309516,2024-11-20 17h25.31.784983 -0500,
203,block6_trial3_attendright_leadmasker.wav,0,202,202,202,1740.7097006,,,,,,,1740.7097734999998,1740.7267229,2.0163320000001477,1746.5645144,1746.5645286,1746.5808754999998,1746.5808754999998,1748.5509425,"['2', '3', '3']","[1.4414623000002393, 1.745495800000299]","[0.11162169999988691, 0.10334059999968304]",2,3,3,720,001,2024-11-20_17h24.27.720,Trial_mult,2023.2.1,59.96771338309516,2024-11-20 17h25.31.784983 -0500,
204,block6_trial4_attendright_leadmasker.wav,0,203,203,203,1748.5660994,,,,,,,1748.5661771999999,1748.582516,2.016380200000185,1754.4213356999999,1754.4213458,1754.4379771999998,1754.4379771999998,1755.5733114999998,"['2', '2', '3']","[0.7610365000000456, 0.9284597000000758]","[0.07079979999980424, 0.14433220000000802]",2,2,3,720,001,2024-11-20_17h24.27.720,Trial_mult,2023.2.1,59.96771338309516,2024-11-20 17h25.31.784983 -0500,
205,block6_trial5_attendleft_leadmasker.wav,0,204,204,204,1755.5885952999997,,,,,,,1755.5886713999998,1755.6049684,2.0164597000002686,1761.4260881,1761.4260983999998,1761.4428438,1761.4428438,1762.9952258999997,"['3', '1', '1']","[1.0999102000000676, 1.3637362999998004]","[0.1438321000000542, 0.08968750000030923]",3,1,1,720,001,2024-11-20_17h24.27.720,Trial_mult,2023.2.1,59.96771338309516,2024-11-20 17h25.31.784983 -0500,
206,block6_trial6_attendleft_leadtarget.wav,0,205,205,205,1763.0107156,,,,,,,1763.0107868999999,1763.0276420999999,2.0167813999996724,1768.8662206,1768.8662313999998,1768.8832708999998,1768.8832708999998,1770.4854277999998,"['2', '3', '2']","[0.8354220999999598, 1.3473042000000532]","[0.1354418999999325, 0.12946419999980208]",2,3,2,720,001,2024-11-20_17h24.27.720,Trial_mult,2023.2.1,59.96771338309516,2024-11-20 17h25.31.784983 -0500,
207,block6_trial7_attendright_leadmasker.wav,0,206,206,206,1770.5001340999997,,,,,,,1770.5002003,1770.5167486999999,2.0160859000002347,1776.3892670999999,1776.3892772999998,1776.4055141,1776.4055141,1778.5417085999998,"['3', '2', '2']","[1.5056439999998474, 1.833179199999904]","[0.1505712000002859, 0.10283320000007734]",3,2,2,720,001,2024-11-20_17h24.27.720,Trial_mult,2023.2.1,59.96771338309516,2024-11-20 17h25.31.784983 -0500,
208,block6_trial8_attendleft_leadmasker.wav,0,207,207,207,1778.5565056,,,,,,,1778.5565779999997,1778.5736874999998,2.0160565000001043,1784.4116992,1784.4117096999998,1784.4281908999997,1784.4281908999997,1785.6801845,"['2', '2', '3']","[0.8107935000002726, 1.0262393000002703]","[0.111374899999646, 0.15308639999966545]",2,2,3,720,001,2024-11-20_17h24.27.720,Trial_mult,2023.2.1,59.96771338309516,2024-11-20 17h25.31.784983 -0500,
209,block6_trial9_attendright_leadtarget.wav,0,208,208,208,1785.6957653,,,,,,,1785.6958382999997,1785.7127837999997,2.0168751000001066,1791.5675589999996,1791.5675698,1791.5844198999998,1791.5844198999998,1793.6374019999998,"['2', '2', '3']","[1.149343200000203, 1.6530885000001945]","[0.08919699999978548, 0.08913639999991574]",2,2,3,720,001,2024-11-20_17h24.27.720,Trial_mult,2023.2.1,59.96771338309516,2024-11-20 17h25.31.784983 -0500,
210,block6_trial10_attendright_leadtarget.wav,0,209,209,209,1793.6522151999998,,,,,,,1793.6522799,1793.6690765999997,2.016221200000018,1799.5072098,1799.5072216999997,1799.5237766999999,1799.5237766999999,1802.1605239,"['2', '3', '2']","[1.5228088999997453, 2.202574099999765]","[0.08911729999999807, 0.09600619999991977]",2,3,2,720,001,2024-11-20_17h24.27.720,Trial_mult,2023.2.1,59.96771338309516,2024-11-20 17h25.31.784983 -0500,
211,block6_trial11_attendright_leadmasker.wav,0,210,210,210,1802.1758350999999,,,,,,,1802.1759116999997,1802.1927728,2.016501099999914,1808.0469921999997,1808.0470031999998,1808.0640709,1808.0640709,1810.6171839999997,"['1', '2', '1']","[1.3424310000000332, 1.8076711999997315]","[0.1431075000000419, 0.11006220000035682]",1,2,1,720,001,2024-11-20_17h24.27.720,Trial_mult,2023.2.1,59.96771338309516,2024-11-20 17h25.31.784983 -0500,
212,block6_trial12_attendleft_leadmasker.wav,0,211,211,211,1810.6322659999996,,,,,,,1810.6323392999998,1810.6489809,2.016531499999928,1816.5038955999999,1816.5039060999998,1816.5207523,1816.5207523,1818.3736870999996,"['2', '3', '1']","[0.8623325000003206, 1.502847500000371]","[0.12692219999962617, 0.12613469999996596]",2,3,1,720,001,2024-11-20_17h24.27.720,Trial_mult,2023.2.1,59.96771338309516,2024-11-20 17h25.31.784983 -0500,
213,block6_trial13_attendleft_leadtarget.wav,0,212,212,212,1818.3884991,,,,,,,1818.3885771999999,1818.4051766999996,2.015964199999871,1824.2601479999998,1824.260158,1824.2767227999998,1824.2767227999998,1825.2626016999998,"['1', '1', '1']","[0.5940014999996492, 0.8009360999999444]","[0.10284020000017335, 0.08873719999974128]",1,1,1,720,001,2024-11-20_17h24.27.720,Trial_mult,2023.2.1,59.96771338309516,2024-11-20 17h25.31.784983 -0500,
214,block6_trial14_attendright_leadtarget.wav,0,213,213,213,1825.2776995999998,,,,,,,1825.2777738999998,1825.2943702999996,2.0160439000001134,1831.1329177999996,1831.1329281999997,1831.1494697999997,1831.1494697999997,1832.4178570999998,"['1', '2', '3']","[0.6967533999995794, 0.9203528999996706]","[0.10365520000004835, 0.13642840000011347]",1,2,3,720,001,2024-11-20_17h24.27.720,Trial_mult,2023.2.1,59.96771338309516,2024-11-20 17h25.31.784983 -0500,
215,block6_trial15_attendleft_leadtarget.wav,0,214,214,214,1832.4332282,,,,,,,1832.4333051999997,1832.4499449999998,2.0168868999999177,1838.2887876999998,1838.2887984,1838.3050638999998,1838.3050638999998,1840.1076817999997,"['3', '2', '2']","[0.9251949999998033, 1.3257835999997951]","[0.11222259999976814, 0.10337759999993068]",3,2,2,720,001,2024-11-20_17h24.27.720,Trial_mult,2023.2.1,59.96771338309516,2024-11-20 17h25.31.784983 -0500,
216,block6_trial16_attendright_leadtarget.wav,0,215,215,215,1840.1225107,,,,,,,1840.1225786999998,1840.1396181,2.0163947000000917,1845.9947361999998,1845.9947468999999,1846.0115469999996,1846.0115469999996,1847.9808498999996,"['2', '1', '3']","[0.8659394999999677, 1.6433704999999463]","[0.12120260000028793, 0.15853480000032505]",2,1,3,720,001,2024-11-20_17h24.27.720,Trial_mult,2023.2.1,59.96771338309516,2024-11-20 17h25.31.784983 -0500,
217,block6_trial17_attendright_leadmasker.wav,0,216,216,216,1847.9958039999997,,,,,,,1847.9958769,1848.0128222999997,2.0163555999997698,1853.8505062999998,1853.8505166,1853.8667908999996,1853.8667908999996,1854.9026138,"['3', '3', '2']","[0.6596994999999879, 0.8673647000000528]","[0.11193120000007184, 0.11361699999997654]",3,3,2,720,001,2024-11-20_17h24.27.720,Trial_mult,2023.2.1,59.96771338309516,2024-11-20 17h25.31.784983 -0500,
218,block6_trial18_attendleft_leadtarget.wav,0,217,217,217,1854.9178803,,,,,,,1854.9179506,1854.9344076999996,2.0166856999999254,1860.7728689,1860.7728794,1860.7891495,1860.7891495,1863.0253549,"['2', '3', '2']","[0.9135975999997754, 1.4486112999998113]","[0.08760570000004009, 0.11288879999983692]",2,3,2,720,001,2024-11-20_17h24.27.720,Trial_mult,2023.2.1,59.96771338309516,2024-11-20 17h25.31.784983 -0500,
219,block6_trial19_attendleft_leadmasker.wav,0,218,218,218,1863.0410745,,,,,,,1863.0411476999998,1863.0578538999998,2.0170232000000397,1868.8960901,1868.8961006999998,1868.9132218999998,1868.9132218999998,1873.0324166999999,"['3', '2']","[2.436561299999994, 3.0931071999998494]","[0.11984929999971428, 0.14422319999994215]",3,2,NA,720,001,2024-11-20_17h24.27.720,Trial_mult,2023.2.1,59.96771338309516,2024-11-20 17h25.31.784983 -0500,
220,block6_trial20_attendleft_leadtarget.wav,0,219,219,219,1873.0492805999997,,,,,,,1873.0493523,1873.0658132999997,2.0247668999995767,1878.9208135,1878.9208228999996,1878.9374908999998,1878.9374908999998,1880.6231607999998,"['2', '3', '3']","[0.6851262999998653, 1.2687135999999555]","[0.11357240000006641, 0.10538120000001072]",2,3,3,720,001,2024-11-20_17h24.27.720,Trial_mult,2023.2.1,59.96771338309516,2024-11-20 17h25.31.784983 -0500,
221,block6_trial21_attendleft_leadmasker.wav,0,220,220,220,1880.6386364,,,,,,,1880.6387053999997,1880.6553949,2.0168909000003623,1886.4936973,1886.4937095,1886.5106432999996,1886.5106432999996,1889.2635530999996,"['3', '2', '2']","[1.3031316999999945, 2.3365546999998514]","[0.12806640000007974, 0.11949559999993653]",3,2,2,720,001,2024-11-20_17h24.27.720,Trial_mult,2023.2.1,59.96771338309516,2024-11-20 17h25.31.784983 -0500,
222,block6_trial22_attendleft_leadmasker.wav,0,221,221,221,1889.2787571999997,,,,,,,1889.2788306999996,1889.2955064999996,2.0168727999998737,1895.1341604999998,1895.1341706999997,1895.1504646999997,1895.1504646999997,1897.3363593,"['2', '3', '3']","[1.2471637999997256, 1.8560701999999765]","[0.11319409999987329, 0.1350112000000081]",2,3,3,720,001,2024-11-20_17h24.27.720,Trial_mult,2023.2.1,59.96771338309516,2024-11-20 17h25.31.784983 -0500,
223,block6_trial23_attendright_leadmasker.wav,0,222,222,222,1897.3520681999998,,,,,,,1897.3521409999998,1897.3684015999997,2.0165689000000384,1903.2076884999997,1903.207699,1903.2243116999998,1903.2243116999998,1905.4761811999997,"['1', '3', '3']","[1.6695823000000019, 2.0303782999999385]","[0.16764549999970768, 0.12008960000002844]",1,3,3,720,001,2024-11-20_17h24.27.720,Trial_mult,2023.2.1,59.96771338309516,2024-11-20 17h25.31.784983 -0500,
224,block6_trial24_attendleft_leadtarget.wav,0,223,223,223,1905.4921763999996,,,,,,,1905.4922499999998,1905.5090071999998,2.0170505999999477,1911.3301616999997,1911.3301720999998,1911.3463776999997,1911.3463776999997,1912.4824621999996,"['1', '2', '2']","[0.5886699999996381, 0.9240766999996595]","[0.14239630000020043, 0.0954356000002008]",1,2,2,720,001,2024-11-20_17h24.27.720,Trial_mult,2023.2.1,59.96771338309516,2024-11-20 17h25.31.784983 -0500,
225,block6_trial25_attendleft_leadtarget.wav,0,224,224,224,1912.4976064999996,,,,,,,1912.4976798999996,1912.5143404,2.0162913999997727,1918.3532032999997,1918.3532136,1918.3691369999997,1918.3691369999997,1920.4387253,"['2', '2', '2']","[0.9484236000002966, 1.844597000000249]","[0.11323119999997289, 0.10381229999984498]",2,2,2,720,001,2024-11-20_17h24.27.720,Trial_mult,2023.2.1,59.96771338309516,2024-11-20 17h25.31.784983 -0500,
226,block6_trial26_attendright_leadtarget.wav,0,225,225,225,1920.4540122999997,,,,,,,1920.4540871,1920.4708425999997,2.016467299999931,1926.3428334999999,1926.3428439,1926.3588725,1926.3588725,1928.3785955999997,"['2', '2', '3']","[0.8477620000003299, 1.4158252000001994]","[0.15963909999982207, 0.1369395000001532]",2,2,3,720,001,2024-11-20_17h24.27.720,Trial_mult,2023.2.1,59.96771338309516,2024-11-20 17h25.31.784983 -0500,
227,block6_trial27_attendleft_leadmasker.wav,0,226,226,226,1928.3936399,,,,,,,1928.3937130999998,1928.4100744999996,2.016295099999752,1934.2817114,1934.2817215,1934.2984376,1934.2984376,1936.8853958,"['2', '2', '3']","[2.092688300000191, 2.2682230000000345, 2.435479800000394]","[0.08650820000002568, 0.23105500000019674, 0.14354709999997795]",2,2,3,720,001,2024-11-20_17h24.27.720,Trial_mult,2023.2.1,59.96771338309516,2024-11-20 17h25.31.784983 -0500,
228,block6_trial28_attendleft_leadtarget.wav,0,227,227,227,1936.9006439,,,,,,,1936.9007315,1936.9174054,2.0161840999999185,1942.7724233999998,1942.7724337,1942.7889370999997,1942.7889370999997,1944.1742943,"['3', '2', '2']","[0.825211699999727, 1.1931117999997696]","[0.12833240000009027, 0.09653340000022581]",3,2,2,720,001,2024-11-20_17h24.27.720,Trial_mult,2023.2.1,59.96771338309516,2024-11-20 17h25.31.784983 -0500,
229,block6_trial29_attendright_leadtarget.wav,0,228,228,228,1944.1899086999997,,,,,,,1944.1899819999999,1944.2062870999998,2.0166315999999824,1950.0610018999996,1950.0610121999998,1950.0775899999999,1950.0775899999999,1953.2654859999998,"['2', '1', '3']","[2.184234899999865, 2.6971699999999146]","[0.10481049999998504, 0.1283109000000877]",2,1,3,720,001,2024-11-20_17h24.27.720,Trial_mult,2023.2.1,59.96771338309516,2024-11-20 17h25.31.784983 -0500,
230,block6_trial30_attendleft_leadmasker.wav,0,229,229,229,1953.2800253999999,,,,,,,1953.2801003,1953.2971000999996,2.015857800000049,1959.1185843999997,1959.1185965,1959.1348028999996,1959.1348028999996,1961.1707011999997,"['1', '2', '3']","[1.632154299999911, 1.7364787999999862, 1.8947337999998126]","[0.167549599999802, 0.1828931999998531, 0.1287771000002067]",1,2,3,720,001,2024-11-20_17h24.27.720,Trial_mult,2023.2.1,59.96771338309516,2024-11-20 17h25.31.784983 -0500,
231,block6_trial31_attendleft_leadmasker.wav,0,230,230,230,1961.1863925999996,,,,,,,1961.1864686,1961.2035649999998,2.016800400000193,1967.0582547,1967.058266,1967.0746427,1967.0746427,1968.9605895,"['3', '2', '1']","[1.0527141999996275, 1.5227314999997361]","[0.14242030000013983, 0.13600550000001022]",3,2,1,720,001,2024-11-20_17h24.27.720,Trial_mult,2023.2.1,59.96771338309516,2024-11-20 17h25.31.784983 -0500,
232,block6_trial32_attendright_leadtarget.wav,0,231,231,231,1968.9760610999997,,,,,,,1968.9761378999997,1968.9927964999997,2.0169134000002487,1974.8144089999996,1974.8144195999998,1974.8306232,1974.8306232,1976.5003026,"['2', '3', '2']","[1.2084523999997145, 1.4476671999996142]","[0.15131060000021535, 0.14414560000022902]",2,3,2,720,001,2024-11-20_17h24.27.720,Trial_mult,2023.2.1,59.96771338309516,2024-11-20 17h25.31.784983 -0500,
